timestamp,AmbientLightSensor,DecibelSource,PitchSensor,AccX,AccY,AccZ
1763074334936,1.0,,,-0.07605000585317612,2.0850000381469727,9.391950607299805
1763074334953,,48.15531611853934,162.53592354910714,,,
1763074334958,,,85.88541666666666,,,
1763074334993,,47.07770501827339,85.88541666666666,,,
1763074335005,,,,0.3730500042438507,2.0779500007629395,9.39900016784668
1763074335021,,,,2.2699501514434814,1.29705011844635,9.38895034790039
1763074335037,,51.72238531722031,85.88541666666666,,,
1763074335040,,,,2.2480502128601074,0.9450000524520874,9.382050514221191
1763074335041,1.0,,,,,
1763074335059,,,,1.759950041770935,0.6289500594139099,8.950950622558594
1763074335073,,50.56619776336153,85.88541666666666,,,
1763074335079,,,,0.0070500001311302185,0.6439500451087952,8.944050788879395
1763074335101,,,,-0.7960500121116638,0.9100500345230103,9.310050010681152
1763074335113,,60.603347028677035,,,,
1763074335118,,,,-0.8160000443458557,0.9190500378608704,9.291000366210938
1763074335140,,,,-0.2939999997615814,1.3620001077651978,9.303000450134277
1763074335141,1.0,,,,,
1763074335153,,47.85447498005975,,,,
1763074335157,,,168.828125,-0.8610000610351562,1.3789501190185547,9.310050010681152
1763074335176,,,,,0.3130500018596649,
1763074335177,,,,-5.098950386047363,,9.298050880432129
1763074335193,,49.48315897753807,168.828125,,,
1763074335196,,,,,1.8790501356124878,
1763074335197,,,,-0.30105000734329224,,9.553950309753418
1763074335215,,,,,1.894050121307373,
1763074335218,,,,1.6879501342773438,,9.541950225830078
1763074335233,,53.080123963549006,168.828125,,,
1763074335235,,,,2.3490002155303955,-0.4249500334262848,9.564000129699707
1763074335241,1.0,,,,,
1763074335257,,,,1.9750500917434692,0.5430000424385071,9.820050239562988
1763074335274,,,,1.2570000886917114,0.7950000166893005,9.805950164794922
1763074335275,,51.70092357568069,,,,
1763074335293,,,,,0.8040000200271606,
1763074335294,,,,0.8550000190734863,,9.820050239562988
1763074335313,,48.074415737251215,,0.843000054359436,0.8160000443458557,9.808050155639648
1763074335332,,,,,0.11205000430345535,
1763074335333,,,,0.2580000162124634,,9.817950248718262
1763074335341,1.0,,,,,
1763074335352,,,,,-0.7630500197410583,
1763074335353,,,,-0.4300500154495239,,9.832050323486328
1763074335354,,44.18148029090134,,,,
1763074335363,,,105.77032180059524,,,
1763074335373,,,,-0.4210500121116638,-0.7849500179290771,9.829950332641602
1763074335392,,,,,0.8160000443458557,
1763074335393,,,,-0.4420500099658966,,9.808050155639648
1763074335396,,55.269568561276685,105.77032180059524,,,
1763074335411,,,,,2.202000141143799,
1763074335412,,,,0.19395001232624054,,9.280950546264648
1763074335430,,,,,3.6750001907348633,
1763074335431,,,,2.449050188064575,,9.259950637817383
1763074335437,,44.62378938306603,105.77032180059524,,,
1763074335442,1.0,,,,,
1763074335449,0.0,,,,,
1763074335450,,,,0.89805006980896,0.29205000400543213,9.267000198364258
1763074335470,,,,,1.3980001211166382,
1763074335475,,,,0.8790000677108765,,9.26205062866211
1763074335478,,37.65370607067472,,,,
1763074335496,,,,0.3949500322341919,2.1880500316619873,9.69105052947998
1763074335508,,,,,1.4770500659942627,
1763074335509,,,,1.162950038909912,,9.688950538635254
1763074335515,,34.154395494728654,,,,
1763074335523,,,61.8275146484375,,,
1763074335529,,,,,0.42795002460479736,
1763074335530,,,,1.1560500860214233,,9.684000015258789
1763074335542,0.0,,,,,
1763074335547,,,,,0.06195000186562538,
1763074335548,,,,0.07200000435113907,,9.69105052947998
1763074335555,,32.663161108951535,61.8275146484375,,,
1763074335567,,,,0.8689500689506531,0.6940500140190125,10.23705005645752
1763074335586,,,,,0.6960000395774841,
1763074335587,,,,0.856950044631958,,10.225050926208496
1763074335594,,31.829579877006697,61.8275146484375,,,
1763074335609,,,,0.40905001759529114,0.40005001425743103,10.234050750732422
1763074335626,,,,-0.5879999995231628,0.032999999821186066,10.218000411987305
1763074335635,,30.389331471965875,61.8275146484375,,,
1763074335643,0.0,,,,,
1763074335645,,,,-1.5220500230789185,0.9019500613212585,10.234050750732422
1763074335665,,,,-1.527000069618225,1.3120501041412354,10.231950759887695
1763074335668,1.0,,,,,
1763074335677,,27.99370639361672,,,,
1763074335684,,,,-0.9619500637054443,1.6780500411987305,10.225050926208496
1763074335704,,,,,1.699950098991394,
1763074335706,,,,-0.9709500670433044,,10.22700023651123
1763074335717,,30.117578689444294,0.0,,,
1763074335724,,,,-0.9780000448226929,1.683000087738037,10.219950675964355
1763074335743,,,,-1.4640001058578491,1.3690500259399414,10.222050666809082
1763074335744,1.0,,,,,
1763074335755,,30.02895715419203,,,,
1763074335762,,,,,1.1040000915527344,
1763074335763,,,,-1.4760000705718994,,10.225050926208496
1763074335782,,,,-1.0549499988555908,0.8160000443458557,10.225050926208496
1763074335795,,29.3021038457567,0.0,,,
1763074335801,,,,,1.1610000133514404,10.21500015258789
1763074335802,,,,-0.028050001710653305,,
1763074335821,,,,,1.1680500507354736,10.231950759887695
1763074335826,,,,0.559950053691864,,
1763074335834,,31.09531676715595,,,,
1763074335842,,,,-0.8320500254631042,0.4429500102996826,10.21500015258789
1763074335845,1.0,,,,,
1763074335860,,,,-1.7010000944137573,0.4429500102996826,10.21500015258789
1763074335875,,29.559120794300572,,,,
1763074335879,,,,,0.44505003094673157,
1763074335880,,,,-1.7010000944137573,,9.69105052947998
1763074335884,0.0,,,,,
1763074335899,,,,-1.2060000896453857,0.45000001788139343,9.68595027923584
1763074335918,,27.604314593242115,0.0,,,
1763074335919,,,,-0.781950056552887,0.9169500470161438,9.6739501953125
1763074335942,,,,-0.7840500473976135,0.5430000424385071,9.688950538635254
1763074335946,0.0,,,,,
1763074335955,,27.496232772635025,,,,
1763074335960,,,,-0.7939500212669373,0.09795000404119492,9.67905044555664
1763074335977,,,,-1.6150500774383545,-0.6700500249862671,9.705000877380371
1763074335995,,27.922451368463747,,,,
1763074335996,,,0.0,,2.2170000076293945,
1763074335997,,,,-0.6529500484466553,,9.69105052947998
1763074336016,,,,0.559950053691864,1.64205002784729,9.447000503540039
1763074336034,,25.95557454745225,,,,
1763074336036,,,,1.0770000219345093,1.6540501117706299,9.4350004196167
1763074336046,0.0,,,,,
1763074336059,,,,1.53000009059906,0.9810000658035278,9.43695068359375
1763074336075,,27.132809617358053,0.0,0.9550500512123108,0.3130500018596649,9.4350004196167
1763074336094,,,,0.43095001578330994,0.895050048828125,9.427950859069824
1763074336113,,,,,0.895050048828125,
1763074336114,,25.350902225454135,,0.4120500087738037,,9.427950859069824
1763074336133,,,,0.4120500087738037,1.6849501132965088,9.427950859069824
1763074336146,0.0,,,,,
1763074336152,,,,,2.0370001792907715,
1763074336153,,,,0.7470000386238098,,9.4350004196167
1763074336155,,24.647044323065437,,,,
1763074336176,,,,,2.281050205230713,
1763074336177,,,,0.3730500042438507,,9.43005084991455
1763074336193,,,,-0.8179500102996826,1.64205002784729,9.447000503540039
1763074336199,,28.186331651559904,0.0,,,
1763074336211,,,,-0.35805001854896545,0.6580500602722168,9.42495059967041
1763074336230,,,,,1.7359501123428345,
1763074336233,,,,1.4220000505447388,,9.42495059967041
1763074336237,,25.80462056451882,,,,
1763074336246,0.0,,,,,
1763074336251,,,,1.1059499979019165,2.3460001945495605,9.841950416564941
1763074336270,,,,0.8119500279426575,2.8060500621795654,9.826950073242188
1763074336275,,24.94414918437359,0.0,,,
1763074336290,,,,0.4519500136375427,2.82705020904541,9.829950332641602
1763074336310,,,,1.1059499979019165,2.4750001430511475,10.345050811767578
1763074336317,,26.258779895114728,,,,
1763074336318,1.0,,,,,
1763074336329,,,,1.759950041770935,2.052000045776367,10.342050552368164
1763074336346,1.0,,,,,
1763074336348,,,,1.7569501399993896,3.057000160217285,10.342050552368164
1763074336356,,24.75648132317103,0.0,,,
1763074336367,,,,,3.061950206756592,
1763074336368,,,,1.3000500202178955,,10.84005069732666
1763074336387,,,,,2.7120001316070557,
1763074336388,,,,0.20100000500679016,,10.82295036315918
1763074336394,,25.075721153133024,,,,
1763074336408,,,,1.8390001058578491,1.5630000829696655,10.82295036315918
1763074336426,,,,5.215050220489502,-0.46095001697540283,10.861950874328613
1763074336438,,25.917609800900753,,,,
1763074336445,,,,,-1.4020500183105469,
1763074336446,1.0,,,6.6220502853393555,,10.845000267028809
1763074336465,,,,6.603000164031982,4.846050262451172,11.134950637817383
1763074336475,,24.879804082337532,0.0,,,
1763074336484,,,,,5.182950019836426,
1763074336489,,,,,,11.11305046081543
1763074336490,,,,8.13794994354248,,
1763074336504,,,,,4.378950119018555,
1763074336505,,,,7.807950496673584,,11.12700080871582
1763074336514,,25.9392558689882,,,,
1763074336526,,,,8.964000701904297,6.397050380706787,11.479050636291504
1763074336543,,,,8.368050575256348,5.061000347137451,11.760000228881836
1763074336546,1.0,,,,,
1763074336556,,23.381152953759816,0.0,,,
1763074336563,,,,6.156000137329102,2.842050075531006,11.757000923156738
1763074336582,,,,5.193000316619873,2.8540501594543457,12.564000129699707
1763074336594,,24.25425524594329,,,,
1763074336601,,,,,2.052000045776367,
1763074336602,,,,4.080000400543213,,12.562050819396973
1763074336621,,,,,1.3050000667572021,
1763074336622,,,,2.9880001544952393,,12.543000221252441
1763074336634,,30.528899407542166,,,,
1763074336635,,,0.0,,,
1763074336641,,,,2.0329501628875732,0.6370500326156616,12.564000129699707
1763074336646,1.0,,,,,
1763074336660,,,,0.30900001525878906,0.6390000581741333,12.562050819396973
1763074336675,,28.200144423102312,,,,
1763074336679,,,,,0.6510000228881836,
1763074336680,,,,-0.19995000958442688,,12.550050735473633
1763074336699,,,,,0.6370500326156616,11.760000228881836
1763074336700,,,,-1.1050500869750977,,
1763074336716,,28.17593848230478,,,,
1763074336718,,,,,0.6559500098228455,
1763074336720,,,,-1.1239500045776367,,9.519000053405762
1763074336743,,,,-0.23595000803470612,1.009950041770935,7.558050155639648
1763074336752,0.0,,,,,
1763074336755,,34.98808527430764,0.0,,,
1763074336759,,,,,1.01295006275177,
1763074336760,0.0,,,-1.443000078201294,,6.091950416564941
1763074336777,,,,-1.4640001058578491,1.807050108909607,4.584000110626221
1763074336796,,,,,1.4050500392913818,
1763074336797,,28.74236206981751,,-1.4449501037597656,,4.002000331878662
1763074336816,,,,,1.4100000858306885,
1763074336817,,,,-1.1269500255584717,,3.0679502487182617
1763074336834,,31.07433414401315,,,,
1763074336836,,,,-0.4519500136375427,2.382000207901001,2.2489500045776367
1763074336839,,,466.710205078125,,,
1763074336861,0.0,,,1.0630500316619873,2.40405011177063,2.2300500869750977
1763074336875,,44.559250447976254,466.710205078125,,,
1763074336876,,,,2.004000186920166,1.4119501113891602,2.239950180053711
1763074336894,,,,,2.0659501552581787,1.6750500202178955
1763074336895,,,,2.5860002040863037,,
1763074336914,,,,2.5830001831054688,2.076000213623047,1.67205011844635
1763074336917,,33.57086901900222,466.710205078125,,,
1763074336933,,,,,0.09105000644922256,
1763074336934,,,,2.9659502506256104,,1.6699501276016235
1763074336953,,,,4.23105001449585,-0.7699500322341919,1.6939500570297241
1763074336958,,34.55203125649901,,,,
1763074336962,0.0,,,,,
1763074336969,1.0,,,,,
1763074336977,,,,3.886050224304199,-0.7800000309944153,1.6800000667572021
1763074336993,,,,4.956000328063965,0.032999999821186066,1.6560001373291016
1763074336997,,39.35589600341148,,,,
1763074337011,,,,,2.9710500240325928,
1763074337012,,,,4.474950313568115,,1.6630500555038452
1763074337031,,,,3.397050142288208,5.298000335693359,3.2689502239227295
1763074337039,,27.958540179846256,,,,
1763074337044,,,64.49544270833334,,,
1763074337050,,,,6.342000484466553,-0.4900500178337097,4.195950031280518
1763074337062,1.0,,,,,
1763074337070,,,,10.70205020904541,-0.7339500188827515,4.7989501953125
1763074337074,,31.796758497663458,,,,
1763074337075,,,64.49544270833334,,,
1763074337096,,,,,2.410950183868408,
1763074337097,,,,10.699950218200684,,4.797000408172607
1763074337114,,29.678320199413022,,,,
1763074337115,,,64.49544270833334,9.3589506149292,1.8859500885009766,4.795050144195557
1763074337135,,,,,-0.9070500135421753,
1763074337136,,,,9.675000190734863,,4.81095027923584
1763074337148,,,,,-0.5689499974250793,4.809000015258789
1763074337149,,,,11.263050079345703,,
1763074337155,,52.96527089390055,,,,
1763074337162,1.0,,,,,
1763074337168,,,,13.402950286865234,1.1749500036239624,4.78695011138916
1763074337186,2.0,,,13.044000625610352,-0.4759500324726105,4.195950031280518
1763074337193,,59.604623592374026,,,,
1763074337197,,,690.78125,,,
1763074337198,,,690.78125,,,
1763074337212,,,,10.96095085144043,-4.204050064086914,3.43500018119812
1763074337226,,,,11.29800033569336,-4.2109503746032715,2.371950149536133
1763074337233,,61.2178209337184,690.78125,,,
1763074337245,,,,,-4.491000175476074,
1763074337247,,,,13.98495101928711,,2.376000165939331
1763074337262,2.0,,,,,
1763074337265,,,,,-5.086950302124023,
1763074337268,,,,15.493050575256348,,2.3740501403808594
1763074337273,,61.111813643648546,690.78125,,,
1763074337285,,,,16.348051071166992,-5.755050182342529,2.371950149536133
1763074337304,,,,,-5.760000228881836,2.376000165939331
1763074337305,,,,16.671001434326172,,
1763074337313,,48.490208069319266,690.78125,,,
1763074337316,,,715.205078125,,,
1763074337323,,,,,-4.849950313568115,
1763074337324,,,,17.374950408935547,,2.376000165939331
1763074337343,,,,18.144001007080078,-3.9019501209259033,2.6520001888275146
1763074337353,,39.70588078677327,715.205078125,,,
1763074337362,2.0,,,,-3.9019501209259033,
1763074337363,,,,18.98400115966797,,2.665950059890747
1763074337382,,,,18.996000289916992,-3.636000156402588,3.43500018119812
1763074337397,,51.90377974704123,,,,
1763074337398,,,715.205078125,,,
1763074337402,5.0,,717.9248046875,18.05805015563965,-4.1170501708984375,3.4489500522613525
1763074337422,,,,17.410951614379883,-4.126950263977051,3.43500018119812
1763074337433,,49.657525591739535,717.9248046875,,,
1763074337441,,,,16.621049880981445,-3.4780502319335938,3.4560000896453857
1763074337460,,,,15.285000801086426,-2.479950189590454,3.4390501976013184
1763074337462,5.0,,,,,
1763074337473,,36.62641246308813,717.9248046875,,,
1763074337480,,,,14.689050674438477,-1.711050033569336,3.436950206756592
1763074337499,,,,,-0.39705002307891846,
1763074337501,,,,14.694000244140625,,3.4390501976013184
1763074337513,,62.16314101327745,,,,
1763074337519,,,,14.976000785827637,0.9670500755310059,2.5729501247406006
1763074337541,,,,15.472050666809082,2.641050100326538,1.6459500789642334
1763074337554,,54.81776737825054,,,,
1763074337558,,,215.33203125,14.380050659179688,3.5380501747131348,1.6410000324249268
1763074337562,5.0,,,,,
1763074337577,,,,,2.5830001831054688,1.3519500494003296
1763074337578,,,,11.859000205993652,,
1763074337594,,49.88310288220695,215.33203125,,,
1763074337597,,,,12.10995101928711,0.673050045967102,1.3399500846862793
1763074337616,,,,,-0.33195000886917114,
1763074337617,,,,13.561050415039062,,1.3639500141143799
1763074337620,0.0,,,,,
1763074337633,,44.640780215996394,215.33203125,,,
1763074337636,,,,12.76395034790039,-2.2639501094818115,1.3560000658035278
1763074337658,,,,9.115050315856934,-5.158950328826904,1.3540500402450562
1763074337662,0.0,,,,,
1763074337673,,35.830182979074515,215.33203125,,,
1763074337675,,,,3.649050235748291,-8.133000373840332,1.3590000867843628
1763074337694,,,,,-8.152050018310547,
1763074337695,,,,1.8460501432418823,,1.3540500402450562
1763074337713,,33.53429118744454,,,,
1763074337714,,,,3.0960001945495605,-6.487950325012207,1.366050124168396
1763074337734,,,,4.575000286102295,-4.540950298309326,1.3590000867843628
1763074337753,,50.006930548828365,,,-2.868000030517578,1.3609501123428345
1763074337754,,,,5.595000267028809,,
1763074337758,,,93.25904482886905,,,
1763074337763,0.0,,,,,
1763074337772,,,,,-1.6750500202178955,
1763074337773,,,,5.610000133514404,,0.8779500126838684
1763074337792,,,,5.314950466156006,-1.6900501251220703,0.33195000886917114
1763074337794,,63.9210507961456,93.25904482886905,,,
1763074337811,,,,,-1.2799500226974487,
1763074337812,,,,4.978050231933594,,-0.6439500451087952
1763074337831,,,,6.78795051574707,-0.20295001566410065,-1.828950047492981
1763074337834,,72.17848364752848,93.25904482886905,,,
1763074337837,3.0,,,,,
1763074337851,,,,8.662050247192383,0.5790000557899475,-2.425950050354004
1763074337863,3.0,,,,,
1763074337870,,,,9.424050331115723,1.0390501022338867,-2.445000171661377
1763074337874,,78.39281172294864,,,,
1763074337891,,,,10.221000671386719,1.048050045967102,-2.430000066757202
1763074337909,,,,10.918050765991211,0.6079500317573547,-2.445000171661377
1763074337914,,63.984680319995874,,,,
1763074337929,,,,12.678000450134277,-0.4540500342845917,-1.828950047492981
1763074337948,,,,14.257950782775879,-0.4729500114917755,-1.8199501037597656
1763074337957,,57.566381778620936,,,,
1763074337963,,,52.36788504464286,,,
1763074337964,3.0,,,,,
1763074337968,,,,17.368051528930664,-0.4759500324726105,-1.8169500827789307
1763074337987,,,,17.361000061035156,0.3559500277042389,-1.8370500802993774
1763074337994,,76.15263080812481,52.36788504464286,,,
1763074338008,,,,17.374950408935547,-1.3090500831604004,-1.8220500946044922
1763074338026,,,,,-0.7990500330924988,
1763074338028,,,,16.987051010131836,,-1.1539500951766968
1763074338034,,74.46092510403058,,,,
1763074338035,,,52.36788504464286,,,
1763074338046,,,,16.426950454711914,-1.374000072479248,-1.1539500951766968
1763074338054,1.0,,,,,
1763074338063,1.0,,,,,
1763074338065,,,,,-1.3830000162124634,
1763074338066,,,,17.389951705932617,,-1.144950032234192
1763074338074,,54.82998846659103,,,,
1763074338085,,,,15.772951126098633,0.8449500203132629,-0.27105000615119934
1763074338104,,,,,-3.220050096511841,
1763074338105,,,,20.457000732421875,,-0.26805001497268677
1763074338117,,55.62915587135714,,,,
1763074338121,,,457.6214163643973,,,
1763074338127,,,,,-0.39000001549720764,0.7270500063896179
1763074338128,,,,15.220050811767578,,
1763074338143,,,,,-2.63100004196167,
1763074338144,,,,14.473051071166992,,0.739050030708313
1763074338153,,60.71405917204004,457.6214163643973,,,
1763074338163,1.0,,,13.044000625610352,-2.6430001258850098,0.7270500063896179
1763074338182,,,,,-3.579000234603882,
1763074338183,,,,11.737051010131836,,0.4320000112056732
1763074338193,,44.529779497000376,457.6214163643973,,,
1763074338202,,,,10.731000900268555,-3.5880000591278076,0.4440000355243683
1763074338221,,,,,-3.8800501823425293,
1763074338222,,,,10.747950553894043,,0.44895002245903015
1763074338234,,38.19161002417606,457.6214163643973,,,
1763074338239,,,491.4018903459821,,,
1763074338243,,,,9.654000282287598,-3.895050287246704,0.43905001878738403
1763074338260,,,,,-3.097050189971924,
1763074338262,,,,8.626049995422363,,0.7270500063896179
1763074338271,3.0,,,,,
1763074338273,,38.61445777061241,491.4018903459821,,,
1763074338277,3.0,,,,,
1763074338280,,,,,-2.6950502395629883,
1763074338282,,,,7.405050277709961,,0.7309500575065613
1763074338299,,,,,-2.710050106048584,
1763074338300,,,,6.56505012512207,,0.44700002670288086
1763074338313,,32.23285156693694,491.4018903459821,,,
1763074338319,,,,5.6670002937316895,-2.7019500732421875,0.45900002121925354
1763074338341,,,,4.675950050354004,-3.05400013923645,0.4510500133037567
1763074338354,,29.09978787900912,,,,
1763074338359,,,,,-3.061950206756592,
1763074338360,,,,3.807000160217285,,0.45900002121925354
1763074338377,3.0,,,,-3.3420002460479736,
1763074338378,,,,3.139050245285034,,0.037050001323223114
1763074338394,,28.651530100830556,0.0,,,
1763074338398,,,,2.880000114440918,-3.7080001831054688,0.04905000329017639
1763074338416,,,,,-4.024050235748291,
1763074338417,,,,2.8969502449035645,,0.05400000140070915
1763074338433,,28.404937199276553,,,,
1763074338436,,,,3.57705020904541,-4.41195011138916,0.05895000323653221
1763074338460,,,,4.381050109863281,-4.879050254821777,0.046950001269578934
1763074338474,,27.580218348387746,,,,
1763074338475,,,,,-5.619000434875488,
1763074338476,,,,5.221950054168701,,-0.22800001502037048
1763074338478,3.0,,,,,
1763074338488,4.0,,,,,
1763074338495,,,,5.854050159454346,-6.049950122833252,-0.4720500111579895
1763074338513,,27.392107437891266,0.0,,,
1763074338514,,,,,-6.459000110626221,-0.4620000123977661
1763074338515,,,,6.522000312805176,,
1763074338533,,,,,-7.35705041885376,
1763074338535,,,,8.029950141906738,,-0.45000001788139343
1763074338553,,44.55819679461057,,,,
1763074338554,,,,9.53895092010498,-8.986950874328613,-0.9390000700950623
1763074338575,,,,10.437000274658203,-10.13700008392334,-1.7929500341415405
1763074338579,4.0,,,,,
1763074338593,,,,11.076000213623047,-10.14900016784668,-1.7820000648498535
1763074338595,,32.601401017425104,,,,
1763074338599,,,2369.58984375,,,
1763074338612,,,,12.07395076751709,-9.756000518798828,-1.7910001277923584
1763074338632,,,,14.48805046081543,-8.923050880432129,-1.7860500812530518
1763074338634,,34.05887505099745,2369.58984375,,,
1763074338651,,,,16.765050888061523,-7.363950252532959,-1.7890501022338867
1763074338670,,,,,-5.877000331878662,
1763074338671,,,,16.369951248168945,,-1.7910001277923584
1763074338673,,50.35797210636914,2369.58984375,,,
1763074338678,4.0,,,,,
1763074338690,,,,14.437050819396973,-5.0370001792907715,-2.3179500102996826
1763074338705,3.0,,,,,
1763074338710,,,,13.18005084991455,-4.419000148773193,-2.313000202178955
1763074338713,,41.50697765793191,,,,
1763074338729,,,,,-3.9810001850128174,
1763074338730,,,,14.208001136779785,,-2.2960500717163086
1763074338749,,,,15.478950500488281,-3.1410000324249268,-1.758000135421753
1763074338753,,52.479054117635144,,,,
1763074338768,,,,,-1.7470500469207764,
1763074338770,,,,14.968950271606445,,-1.3549500703811646
1763074338779,3.0,,,,,
1763074338788,,,,,-0.5620500445365906,-1.3530000448226929
1763074338790,,,,13.582950592041016,,
1763074338794,,44.68545684403217,,,,
1763074338798,,,232.17081705729169,,,
1763074338809,,,,12.217950820922852,0.07605000585317612,-1.3699500560760498
1763074338827,,,,11.2339506149292,0.09600000083446503,-1.758000135421753
1763074338833,,34.35615976515107,232.17081705729169,,,
1763074338846,,,,,-0.28905001282691956,
1763074338847,,,,11.25105094909668,,-2.6050500869750977
1763074338866,,,,11.241000175476074,-0.5910000205039978,-2.5980000495910645
1763074338874,,60.37859145055775,232.17081705729169,,,
1763074338879,3.0,,,,,
1763074338886,,,,10.947000503540039,-0.33900001645088196,-2.5860002040863037
1763074338905,,,,,0.04800000041723251,
1763074338906,,,,10.120950698852539,,-1.5640500783920288
1763074338913,,60.17668188404902,,,,
1763074338922,0.0,,,,,
1763074338926,,,,,0.2989500164985657,-1.585050106048584
1763074338927,,,,9.819000244140625,,
1763074338944,,,,9.804000854492188,0.3160500228404999,-1.5780000686645508
1763074338954,,37.89114603054847,,,,
1763074338957,,,138.0908203125,,,
1763074338963,,,,,0.3040500283241272,
1763074338964,,,,10.46505069732666,,-1.5660001039505005
1763074338979,0.0,,,,,
1763074338983,,,,10.482000350952148,-0.28905001282691956,-1.546950101852417
1763074338993,,45.16119777592752,138.0908203125,,,
1763074339003,,,,,-0.8280000686645508,
1763074339004,,,,10.824000358581543,,-1.5589500665664673
1763074339023,,,,11.571000099182129,-1.1010000705718994,-1.0750499963760376
1763074339035,,65.47355060144426,138.0908203125,,,
1763074339042,,,,12.871950149536133,-0.7270500063896179,-1.0750499963760376
1763074339061,,,,,-0.15300001204013824,-1.0750499963760376
1763074339062,,,,13.87695026397705,,
1763074339074,,46.94509106157787,138.0908203125,,,
1763074339080,0.0,,,,,
1763074339081,,,197.080078125,14.782051086425781,-0.17205001413822174,-1.055999994277954
1763074339100,,,,,-0.8710500597953796,
1763074339101,,,,15.385951042175293,,-1.0750499963760376
1763074339113,,62.280594494321406,197.080078125,,,
1763074339120,,,,,-1.5600000619888306,
1763074339121,,,,15.405000686645508,,-1.055999994277954
1763074339139,1.0,,,15.81705093383789,-1.5750000476837158,-1.0660500526428223
1763074339154,,55.24771800081024,197.080078125,,,
1763074339159,,,,16.362001419067383,-2.0340001583099365,-1.0609500408172607
1763074339178,,,,,-2.4079501628875732,
1763074339179,,,,16.930049896240234,,-1.714050054550171
1763074339180,1.0,,,,,
1763074339194,,62.9445987256436,,,,
1763074339198,,,,16.94700050354004,-2.8030500411987305,-1.6980000734329224
1763074339218,,,,16.132949829101562,-3.097050189971924,-2.074050188064575
1763074339236,,61.757739751010945,,,,
1763074339237,,,,15.357000350952148,-3.81600022315979,-2.074050188064575
1763074339242,,,673.1644694010417,,,
1763074339260,,,,,-4.62000036239624,-2.505000114440918
1763074339261,,,,14.983050346374512,,
1763074339274,,42.02131491324585,673.1644694010417,,,
1763074339276,,,,,-5.323950290679932,-2.7490501403808594
1763074339277,,,,14.731950759887695,,
1763074339292,1.0,,,,,
1763074339295,,,,,-6.0420002937316895,
1763074339298,,,,13.992000579833984,,-3.000000238418579
1763074339314,,36.91889485165445,673.1644694010417,,,
1763074339315,,,,12.61305046081543,-6.064050197601318,-2.7490501403808594
1763074339335,,,,11.385000228881836,-6.058950424194336,-2.505000114440918
1763074339353,,33.68836819630299,673.1644694010417,,,
1763074339354,,,,10.285950660705566,-6.0420002937316895,-2.505000114440918
1763074339356,2.0,,,,,
1763074339375,,,,9.790050506591797,-6.423000335693359,-2.482950210571289
1763074339393,2.0,,,8.626049995422363,-6.423000335693359,-2.482950210571289
1763074339395,,35.83820125583596,,,,
1763074339412,,,,,-5.86305046081543,
1763074339413,,,,7.915050506591797,,-2.493000030517578
1763074339432,,,,7.483950138092041,-5.875050067901611,-2.052000045776367
1763074339433,,49.40311738845148,,,,
1763074339438,,,63.370186941964285,,,
1763074339452,,,,7.096950531005859,-6.150000095367432,-1.758000135421753
1763074339471,,,,,-6.153000354766846,-1.1470500230789185
1763074339472,,,,6.421050071716309,,
1763074339474,,49.552613119305214,63.370186941964285,,,
1763074339492,,,,,-6.153000354766846,-0.5509500503540039
1763074339493,2.0,,,6.069000244140625,,
1763074339510,,,,6.0859503746032715,-6.154950141906738,-0.534000039100647
1763074339514,,40.281838010815925,63.370186941964285,,,
1763074339530,,,,,-7.012050151824951,-0.5389500260353088
1763074339532,,,,6.687000274658203,,
1763074339549,,,,,-7.7659502029418945,
1763074339551,,,,6.687000274658203,,-0.2850000262260437
1763074339553,,28.71657640811165,,,,
1763074339569,,,,7.032000541687012,-7.768950462341309,-0.283050000667572
1763074339576,8.0,,,,,
1763074339588,,,,,-8.133000373840332,-0.2779500186443329
1763074339589,,,,6.6220502853393555,,
1763074339592,8.0,,,,,
1763074339594,,29.749388709659847,,,,
1763074339609,,,,6.048000335693359,-8.383950233459473,-0.2659500241279602
1763074339627,,,,,-8.7649507522583,-0.26805001497268677
1763074339628,,,,5.725050449371338,,
1763074339637,,31.179899391953757,0.0,,,
1763074339647,,,,6.069000244140625,-9.433050155639648,-0.27105000615119934
1763074339666,,,,6.450000286102295,-9.82800006866455,-0.283050000667572
1763074339674,,30.453660059750298,,,,
1763074339686,,,,6.199050426483154,-9.426000595092773,-0.6949500441551208
1763074339694,8.0,,,,,
1763074339705,,,,,-8.973000526428223,
1763074339706,,,,6.20805025100708,,-0.9820500612258911
1763074339717,,33.65031747160445,,,,
1763074339718,,,0.0,,,
1763074339725,,,,,-8.30505084991455,
1763074339726,,,,7.606950283050537,,-0.970050036907196
1763074339744,,,,,-8.32395076751709,
1763074339745,,,,9.03600025177002,,-0.9750000238418579
1763074339757,,27.154248650873996,,,,
1763074339764,,,,10.321950912475586,-8.053950309753418,-0.9820500612258911
1763074339783,,,,,-7.234950542449951,
1763074339784,,,,,,-0.9630000591278076
1763074339785,,,,11.658000946044922,,
1763074339793,6.0,39.659275003598744,,,,
1763074339795,6.0,,,,,
1763074339797,,,225.3955078125,,,
1763074339803,,,,,-6.523950099945068,
1763074339805,,,,12.117000579833984,,-1.2400500774383545
1763074339822,,,,,-6.142950057983398,
1763074339826,,,,12.121950149536133,,-1.5709500312805176
1763074339833,,36.95174812482946,,,,
1763074339834,,,225.3955078125,,,
1763074339842,,,,12.120000839233398,-6.1650004386901855,-1.5679501295089722
1763074339862,,,,12.1360502243042,-5.583000183105469,-1.5520501136779785
1763074339873,,34.20334429765906,225.3955078125,,,
1763074339881,,,,12.133950233459473,-4.957950115203857,-1.5540000200271606
1763074339896,6.0,,,,,
1763074339900,,,,,-3.95205020904541,
1763074339901,,,,12.655950546264648,,-1.168950080871582
1763074339913,,46.07896400266846,225.3955078125,,,
1763074339920,,,,13.252050399780273,-2.608950138092041,-1.1539500951766968
1763074339944,,,,13.273950576782227,-1.6110000610351562,-1.1470500230789185
1763074339953,,67.124737186065,,,,
1763074339959,,,,13.270950317382812,-1.1290500164031982,-1.1490000486373901
1763074339978,,,,,-0.5620500445365906,
1763074339979,,,,12.678000450134277,,-1.4130001068115234
1763074339994,,71.34729795418411,,,,
1763074339997,6.0,,,,,
1763074339998,,,,12.66300106048584,-0.06599999964237213,-1.4269500970840454
1763074340000,,,514.4233049665179,,,
1763074340010,1.0,,,,,
1763074340017,,,,,0.4140000343322754,
1763074340018,,,,12.661050796508789,,-1.4299501180648804
1763074340033,,47.42914903235861,514.4233049665179,,,
1763074340037,,,,,0.7800000309944153,
1763074340039,,,,12.678000450134277,,-1.4130001068115234
1763074340060,,,,12.66300106048584,0.5070000290870667,-1.4269500970840454
1763074340073,,46.96686070732591,514.4233049665179,,,
1763074340077,,,,12.687000274658203,-0.4249500334262848,-1.4029500484466553
1763074340096,1.0,,,12.687000274658203,-1.0720500946044922,-1.699950098991394
1763074340113,,44.76723272792537,,,,
1763074340115,,,,,-0.5689499974250793,-1.6909500360488892
1763074340116,,,,13.129950523376465,,
1763074340135,,,,13.956000328063965,0.48600003123283386,-1.7170500755310059
1763074340153,,33.73239761662943,,,,
1763074340154,,,,,1.1470500230789185,
1763074340155,,,,14.659950256347656,,-2.0020501613616943
1763074340176,,,,14.983050346374512,1.165950059890747,-2.004000186920166
1763074340193,,72.74126031632476,,,,
1763074340195,,,,14.980950355529785,-0.10200000554323196,-2.004000186920166
1763074340197,1.0,,534.658203125,,,
1763074340213,,,,15.000000953674316,-0.8640000224113464,-1.984950065612793
1763074340226,3.0,,,,,
1763074340232,,,,15.241950988769531,-1.467000126838684,-1.9800001382827759
1763074340233,,64.50499720300667,,,,
1763074340234,,,534.658203125,,,
1763074340252,,,,16.104000091552734,-1.812000036239624,-1.9950001239776611
1763074340271,,,,,-2.1850500106811523,
1763074340272,,,,17.11695098876953,,-1.9800001382827759
1763074340274,,62.757900349876444,534.658203125,,,
1763074340278,,,312.9345703125,,,
1763074340291,,,,,-2.4649500846862793,
1763074340292,,,,18.0,,-1.9870500564575195
1763074340310,3.0,,,,-2.9110500812530518,
1763074340312,,,,17.497051239013672,,-1.9969501495361328
1763074340314,,64.44971485400545,312.9345703125,,,
1763074340331,,,,17.20305061340332,-3.4999501705169678,-1.9830000400543213
1763074340349,,,,,-4.527000427246094,
1763074340350,,,,18.783000946044922,,-1.984950065612793
1763074340353,,56.6894132322594,312.9345703125,,,
1763074340369,,,,19.4010009765625,-5.080050468444824,-1.9830000400543213
1763074340389,,,,18.98400115966797,-5.791050434112549,-1.9900500774383545
1763074340393,,57.545372690046676,,,,
1763074340410,3.0,,,17.45400047302246,-6.5809502601623535,-1.9900500774383545
1763074340427,,,,,-7.113000392913818,
1763074340428,,,,14.78895092010498,,-1.7359501123428345
1763074340437,,58.192801113519046,,,,
1763074340443,1.0,,122.66592843191964,,,
1763074340444,,,122.66592843191964,,,
1763074340447,,,,,-7.120050430297852,
1763074340448,,,,12.261000633239746,,-1.7359501123428345
1763074340466,,,,,-7.378050327301025,
1763074340467,,,,10.573050498962402,,-1.111050009727478
1763074340474,,58.66568563339733,122.66592843191964,,,
1763074340486,,,,9.409049987792969,-6.969000339508057,-0.6949500441551208
1763074340505,,,,,-6.610050201416016,
1763074340506,,,,8.338950157165527,,-0.6780000329017639
1763074340511,1.0,,,,,
1763074340513,,50.88666851984633,,,,
1763074340514,,,122.66592843191964,,,
1763074340526,,,,7.219050407409668,-6.193050384521484,-0.687000036239624
1763074340544,,,,,-6.214950084686279,
1763074340546,,,,6.673050403594971,,-0.690000057220459
1763074340554,,45.19409790257886,122.66592843191964,,,
1763074340560,,,108.75313895089286,,,
1763074340564,,,,,-6.210000514984131,-0.6949500441551208
1763074340566,,,,6.2059502601623535,,
1763074340584,,,,5.602050304412842,-6.718050479888916,-0.16995000839233398
1763074340593,,40.919634111812,,,,
1763074340594,,,108.75313895089286,,,
1763074340603,,,,5.611950397491455,-6.721950531005859,-0.16095000505447388
1763074340611,1.0,,,,,
1763074340623,,,,5.229000091552734,-7.1770501136779785,-0.16095000505447388
1763074340633,,36.362866263620305,108.75313895089286,,,
1763074340643,,,,4.912950038909912,-7.43595027923584,-0.16500000655651093
1763074340659,7.0,,,,,
1763074340661,,,,,-7.4569501876831055,
1763074340662,,,,4.590000152587891,,-0.1680000126361847
1763074340674,,32.75597555983557,,,,
1763074340681,,,,4.2019500732421875,-7.450050354003906,0.10905000567436218
1763074340701,,,,4.209000110626221,-7.438050270080566,0.11595000326633453
1763074340711,7.0,,,,,
1763074340713,,33.95676478229094,,,,
1763074340720,,,,4.219050407409668,-7.903050422668457,0.12600000202655792
1763074340724,,,136.0,,,
1763074340726,,,136.0,,,
1763074340741,,,,4.768950462341309,-8.355000495910645,0.12300000339746475
1763074340753,,35.88045526375038,136.0,,,
1763074340759,,,,5.538000106811523,-8.371950149536133,0.11595000326633453
1763074340779,,,,6.292050361633301,-8.104050636291504,0.11100000888109207
1763074340794,,42.64923849445761,136.0,,,
1763074340798,,,,,-8.122950553894043,
1763074340800,,,,7.462950229644775,,0.13095000386238098
1763074340810,7.0,,,,,
1763074340818,,,,,-7.729950428009033,
1763074340820,,,,8.928000450134277,,-0.6589500308036804
1763074340837,,,,,-7.386000156402588,
1763074340838,,,,10.516050338745117,,-0.6559500098228455
1763074340858,,37.15335063142973,136.0,,,
1763074340860,,,,,-6.588000297546387,
1763074340861,,,,11.442000389099121,,-1.5130500793457031
1763074340863,,,92.58968098958334,,,
1763074340876,,32.11972316003929,92.58968098958334,,,
1763074340878,6.0,,,11.773050308227539,-5.985000133514404,-1.4989501237869263
1763074340896,,,,12.088950157165527,-5.689950466156006,-1.8870000839233398
1763074340911,6.0,,,,,
1763074340914,,36.44133553293165,92.58968098958334,,,
1763074340916,,,,12.34695053100586,-5.710050106048584,-2.4690001010894775
1763074340936,,,,13.044000625610352,-5.707050323486328,-2.4690001010894775
1763074340953,,30.061673478496363,,,,
1763074340954,,,,,-5.238000392913818,
1763074340955,,,,13.567950248718262,,-2.052000045776367
1763074340974,,,,13.582950592041016,-4.62000036239624,-2.0380501747131348
1763074340993,,,,,-3.9019501209259033,
1763074340994,,32.90397066545604,,13.582950592041016,,-1.5130500793457031
1763074340999,,,267.6416015625,,,
1763074341011,6.0,,,,,
1763074341013,,,,13.585050582885742,-3.5209500789642334,-1.4970000982284546
1763074341032,,,,,-3.1549501419067383,
1763074341033,,41.06724995301655,267.6416015625,13.94895076751709,,-1.5040500164031982
1763074341052,,,,,-2.1850500106811523,
1763074341054,,,,14.48805046081543,,-1.492050051689148
1763074341072,,,,,-0.6769500374794006,
1763074341074,,46.93152797050451,267.6416015625,14.926051139831543,,-1.0180500745773315
1763074341093,1.0,,,,,
1763074341094,,,,14.923050880432129,0.6150000095367432,-1.0200001001358032
1763074341110,,,,,1.434000015258789,
1763074341111,1.0,,,14.005950927734375,,-1.0249500274658203
1763074341114,,52.12426648882747,267.6416015625,,,
1763074341136,,,,,1.434000015258789,-1.0249500274658203
1763074341138,,,,12.922050476074219,,
1763074341151,,,,12.5910005569458,0.48600003123283386,-1.0339500904083252
1763074341153,,65.67340130893108,,,,
1763074341170,,,,12.574950218200684,0.1980000138282776,-1.0339500904083252
1763074341193,,60.88265298866262,,13.18005084991455,0.8160000443458557,-1.0300500392913818
1763074341197,,,169.453125,,,
1763074341210,1.0,,,13.159050941467285,1.3759500980377197,-1.6930500268936157
1763074341229,,,,13.177950859069824,1.3810501098632812,-2.3389501571655273
1763074341234,,46.071515031325006,,,,
1763074341235,,,169.453125,,,
1763074341248,,,,,0.9450000524520874,-2.3610000610351562
1763074341249,,,,13.9350004196167,,
1763074341268,,,,14.574000358581543,0.21300001442432404,-2.347050189971924
1763074341278,,69.00297775638589,169.453125,,,
1763074341287,,,,,0.22995001077651978,
1763074341288,,,,15.702000617980957,,-2.3389501571655273
1763074341308,,,,16.68600082397461,0.22200001776218414,-2.3560500144958496
1763074341314,,62.39860928967076,,,,
1763074341326,1.0,,,16.66604995727539,-0.037950001657009125,-2.3590500354766846
1763074341346,,,,16.69500160217285,-0.49695003032684326,-2.3299500942230225
1763074341353,,58.978089771976066,,,,
1763074341365,,,,,-1.27305006980896,
1763074341366,,,,17.145000457763672,,-2.320050001144409
1763074341385,,,,17.404050827026367,-2.0269501209259033,-1.9009500741958618
1763074341393,,64.98878437908412,,,,
1763074341398,,,557.673828125,,,
1763074341404,,,,,-2.737950086593628,
1763074341405,,,,17.404050827026367,,-1.9009500741958618
1763074341426,,,,,-3.68595027923584,
1763074341427,,,,16.470001220703125,,-1.8870000839233398
1763074341428,1.0,,,,,
1763074341437,,49.10398045763094,557.673828125,,,
1763074341444,,,,15.457050323486328,-4.79295015335083,-1.8820500373840332
1763074341463,,,,14.551950454711914,-5.899050235748291,-1.9009500741958618
1763074341473,,42.83345298596828,557.673828125,,,
1763074341482,,,,,-6.9910502433776855,
1763074341483,,,,15.421051025390625,,-1.8870000839233398
1763074341502,,,,14.832000732421875,-6.394050121307373,-1.8840000629425049
1763074341514,,37.24543261237001,,,,
1763074341521,,,,,-5.719050407409668,
1763074341522,,,,13.963050842285156,,-1.8889501094818115
1763074341526,2.0,,,,,
1763074341528,2.0,,,,,
1763074341544,,,,,-5.722050189971924,
1763074341545,,,,12.979050636291504,,-1.8870000839233398
1763074341553,,41.139231635453505,,,,
1763074341557,,,56.40034993489583,,,
1763074341558,,,56.40034993489583,,,
1763074341561,,,,11.434950828552246,-5.731050491333008,-1.9009500741958618
1763074341580,,,,,-5.719050407409668,
1763074341581,,,,10.285950660705566,,-1.8889501094818115
1763074341594,,43.17273965510422,56.40034993489583,,,
1763074341600,,,,9.337950706481934,-5.724000453948975,-1.8840000629425049
1763074341619,,,,8.109000205993652,-5.740950107574463,-1.6000500917434692
1763074341628,2.0,,,,,
1763074341633,,36.00177420981292,56.40034993489583,,,
1763074341639,,,,,-5.737950325012207,-1.5919500589370728
1763074341641,,,,7.183050155639648,,
1763074341658,,,,6.529050350189209,-5.719050407409668,-0.2850000262260437
1763074341674,,29.62013718946579,56.40034993489583,,,
1763074341678,,,,5.73900032043457,-5.737950325012207,0.5539500117301941
1763074341697,,,,5.401050090789795,-5.181000232696533,0.5539500117301941
1763074341716,,,,,-5.190000057220459,
1763074341717,,32.62240357113413,,5.092950344085693,,0.5640000104904175
1763074341728,2.0,,,,,
1763074341736,,,,4.489050388336182,-6.028050422668457,0.5640000104904175
1763074341744,3.0,,,,,
1763074341753,,30.72706615482649,0.0,,,
1763074341756,,,,4.237950325012207,-6.459000110626221,0.5640000104904175
1763074341775,,,,4.255050182342529,-6.466050148010254,0.5710500478744507
1763074341794,,30.80233495483148,,,,
1763074341795,,,,4.747950077056885,-6.475950241088867,0.21705001592636108
1763074341814,,,,5.559000492095947,-6.459000110626221,-0.2639999985694885
1763074341829,3.0,,,,,
1763074341834,,28.267504046689137,0.0,,-7.255950450897217,
1763074341835,,,,,,-0.5149500370025635
1763074341836,,,,6.522000312805176,,
1763074341853,,,,,-7.852950572967529,-0.8089500665664673
1763074341854,,,,7.089000225067139,,
1763074341873,,,,7.099050521850586,-7.872000217437744,-0.7999500632286072
1763074341874,,28.66883166449865,,,,
1763074341894,,,,8.029950141906738,-6.8610005378723145,-0.8050500154495239
1763074341912,,,,9.259050369262695,-6.129000186920166,-0.7950000166893005
1763074341914,,27.896898092416407,,,,
1763074341930,3.0,,,,,
1763074341931,,,,,-5.511000156402588,-1.054050087928772
1763074341933,,,,10.401000022888184,,
1763074341951,,,,11.083050727844238,-5.194950103759766,-1.0390501022338867
1763074341953,,28.56881924352593,0.0,,,
1763074341970,,,,,-4.627050399780273,-1.420050024986267
1763074341971,,,,11.104950904846191,,
1763074341990,,,,11.088000297546387,-4.275000095367432,-1.4149500131607056
1763074341994,,29.249836049222033,,,,
1763074342010,,,,,-4.278000354766846,
1763074342011,,,,11.506950378417969,,-1.7929500341415405
1763074342029,3.0,,,11.815950393676758,-4.540950298309326,-1.7860500812530518
1763074342034,,28.961970988848933,0.0,,,
1763074342048,,,,,-4.785000324249268,
1763074342049,,,,11.827950477600098,,-3.280050039291382
1763074342068,,,,,-4.80495023727417,
1763074342069,,,,,,-3.2730002403259277
1763074342073,,27.13804249754199,,,,
1763074342087,,,,,-4.153050422668457,
1763074342089,,,,,,-3.2779500484466553
1763074342090,,,,11.385000228881836,,
1763074342107,,,,11.629050254821777,-2.9389500617980957,-3.271050214767456
1763074342114,,29.60280086748378,0.0,,,
1763074342129,3.0,,,12.031050682067871,-1.8330000638961792,-3.2760002613067627
1763074342146,,,,11.614950180053711,-1.467000126838684,-3.259050130844116
1763074342153,,29.41638175475657,,,,
1763074342165,,,,,-1.201050043106079,
1763074342166,,,,11.634000778198242,,-2.0160000324249268
1763074342178,1.0,,,,,
1763074342185,,,,11.320050239562988,-0.7339500188827515,-1.1759999990463257
1763074342197,,32.21922898330342,,,,
1763074342204,,,,,-0.1879500150680542,
1763074342205,,,,11.332050323486328,,-1.1640000343322754
1763074342225,,,,11.313000679016113,0.5719500184059143,-1.1830500364303589
1763074342230,1.0,,,,,
1763074342233,,31.988074291137593,,,,
1763074342234,,,0.0,,,
1763074342245,,,,11.301000595092773,1.111050009727478,-1.1950500011444092
1763074342263,,,,11.302950859069824,0.6289500594139099,-1.1929500102996826
1763074342273,,23.492257510562528,,,,
1763074342282,,,,,-0.5260500311851501,
1763074342283,,,,11.679000854492188,,-1.1610000133514404
1763074342302,,,,12.850050926208496,-0.5380499958992004,-1.771950125694275
1763074342313,,26.33527997226508,0.0,,,
1763074342322,,,,13.884000778198242,0.13395000994205475,-1.771950125694275
1763074342331,1.0,,,,,
1763074342344,,,,14.18595027923584,1.0960500240325928,-2.281949996948242
1763074342353,,28.02874131731064,,,,
1763074342361,,,,14.81100082397461,1.434000015258789,-2.2890000343322754
1763074342380,,,,,0.4140000343322754,
1763074342381,,,,15.895950317382812,,-2.2990500926971436
1763074342393,,73.1984662965756,,,,
1763074342396,,,3540.3369140625,,,
1763074342400,,,,17.124000549316406,-0.1380000114440918,-2.8780500888824463
1763074342419,,,,,-0.15000000596046448,-2.880000114440918
1763074342420,,,,17.907001495361328,,
1763074342430,1.0,,,,,
1763074342433,,59.004471374074654,3540.3369140625,,,
1763074342439,,,,17.89695167541504,-0.1189500093460083,-2.8879501819610596
1763074342461,,,,17.311050415039062,-0.1380000114440918,-2.5260000228881836
1763074342473,,72.44283298885959,3540.3369140625,,,
1763074342480,,,,16.87200164794922,-1.1440500020980835,-2.517000198364258
1763074342497,,,,,-2.070000171661377,-2.524050235748291
1763074342498,,,,16.875,,
1763074342514,,66.39805581486306,3540.3369140625,,,
1763074342517,,,,16.204050064086914,-3.1050002574920654,-2.5189502239227295
1763074342531,1.0,,,,,
1763074342536,,,,,-4.138950347900391,-2.514000177383423
1763074342537,,,,15.535950660705566,,
1763074342553,,57.47153188365532,,,,
1763074342556,,,,14.926051139831543,-5.317050457000732,-2.8780500888824463
1763074342580,,,,14.935050964355469,-6.2440505027771,-2.8690500259399414
1763074342594,,40.747615812947984,,,,
1763074342595,,,,13.827000617980957,-6.508950233459473,-2.8660502433776855
1763074342597,,,164.5458984375,,,
1763074342614,,,,,-6.511950492858887,
1763074342615,,,,12.520051002502441,,-2.863950252532959
1763074342631,1.0,,,,,
1763074342633,,39.16020661531802,164.5458984375,,,
1763074342634,,,,11.2339506149292,-5.755050182342529,-2.8780500888824463
1763074342653,,,,,-5.758050441741943,
1763074342654,,,,9.961950302124023,,-2.8759500980377197
1763074342673,,42.49440895919416,164.5458984375,8.677050590515137,-5.760000228881836,-2.8729500770568848
1763074342681,,,208.0645751953125,,,
1763074342695,,,,7.743000507354736,-5.769000053405762,-2.863950252532959
1763074342713,,,,7.111050128936768,-5.758050441741943,-2.8759500980377197
1763074342715,,42.937033403729366,208.0645751953125,,,
1763074342731,,,,,-5.772000312805176,
1763074342732,1.0,,,6.730050086975098,,-1.8870000839233398
1763074342751,,,,,-5.389050483703613,
1763074342752,,,,6.4860005378723145,,-1.1179500818252563
1763074342753,,42.75777053736946,208.0645751953125,,,
1763074342770,,,,,-5.094000339508057,
1763074342771,,,,6.169950485229492,,-0.6010500192642212
1763074342790,,,,5.803950309753418,-4.8070502281188965,-0.2989500164985657
1763074342794,,40.67770049910342,208.0645751953125,,,
1763074342812,,,,5.824950218200684,-4.819050312042236,-0.2779500186443329
1763074342828,3.0,,,5.815950393676758,-4.809000015258789,-0.286950021982193
1763074342832,3.0,,,,,
1763074342833,,43.85591552085816,,,,
1763074342849,,,,,-5.224050045013428,-0.28005000948905945
1763074342850,,,,6.60105037689209,,
1763074342868,,,,,-6.0420002937316895,
1763074342870,,,,6.60105037689209,,-0.2989500164985657
1763074342874,,42.62264167217897,,,,
1763074342877,,,1039.6728515625,,,
1763074342888,,,,6.6060004234313965,-6.046950340270996,-0.2950500249862671
1763074342907,,,,,-6.046950340270996,
1763074342908,,,,6.6060004234313965,,-0.8530500531196594
1763074342917,,48.23129033100278,1039.6728515625,,,
1763074342927,,,,6.6220502853393555,-6.064050197601318,-1.5280500650405884
1763074342944,3.0,,,,,
1763074342946,,,,7.663950443267822,-6.517050266265869,-1.5090000629425049
1763074342958,,40.36792423771473,1039.6728515625,,,
1763074342966,,,,,-7.378050327301025,
1763074342967,,,,9.0,,-1.8079501390457153
1763074342985,,,,9.473999977111816,-7.651050567626953,-1.8030000925064087
1763074342993,,36.04698962439325,,,,
1763074343005,,,,8.935050010681152,-7.156050205230713,-2.1310501098632812
1763074343025,,,,,-7.1770501136779785,
1763074343026,,,,8.944950103759766,,-2.1220500469207764
1763074343033,,35.26204433368272,,,,
1763074343040,,,186.02311197916669,,,
1763074343044,3.0,,,,-6.294000148773193,-2.1190500259399414
1763074343045,,,,10.056000709533691,,
1763074343063,,,,,-4.885950088500977,
1763074343064,,,,11.421000480651855,,-1.8870000839233398
1763074343073,,42.33437057233832,186.02311197916669,,,
1763074343083,,,,11.428050994873047,-4.038000106811523,-1.8799500465393066
1763074343102,,,,,-4.05495023727417,
1763074343104,,,,10.73805046081543,,-1.8870000839233398
1763074343114,,47.496844837101264,186.02311197916669,,,
1763074343122,,,,,-4.0410003662109375,
1763074343123,,,,9.697050094604492,,-1.8769501447677612
1763074343145,3.0,,,9.699000358581543,-4.057950019836426,-2.1670501232147217
1763074343153,,46.96846903996317,186.02311197916669,,,
1763074343161,,,,10.329000473022461,-4.050000190734863,-2.5410001277923584
1763074343180,,,,,-4.04295015335083,
1763074343181,,,,10.947000503540039,,-2.7850501537323
1763074343194,,45.79158430662518,,,,
1763074343200,,,,10.954050064086914,-3.535950183868408,-2.482950210571289
1763074343219,,,,,-3.05400013923645,
1763074343220,,,,10.951050758361816,,-2.4780001640319824
1763074343233,,59.401458607724905,,,,
1763074343237,,,157.83447265625,,,
1763074343239,,,,11.421000480651855,-2.1850500106811523,-2.461050033569336
1763074343246,3.0,,,,,
1763074343259,,,,12.225000381469727,-1.2079501152038574,-2.4810001850128174
1763074343262,1.0,,,,,
1763074343273,,59.755635696879914,157.83447265625,,,
1763074343278,,,,12.958050727844238,0.012000000104308128,-2.505000114440918
1763074343297,,,,,0.8449500203132629,
1763074343298,,,,12.940950393676758,,-2.8129501342773438
1763074343313,,60.60216746451637,,,,
1763074343314,,,157.83447265625,,,
1763074343317,,,,,1.5340501070022583,-2.8249502182006836
1763074343318,,,,12.946050643920898,,
1763074343337,,,,12.93600082397461,1.807050108909607,-2.8350000381469727
1763074343346,1.0,,,,,
1763074343353,,50.74965707138459,,,,
1763074343356,,,,,1.8220500946044922,
1763074343357,,,,,,-2.8249502182006836
1763074343358,,,,12.318000793457031,,
1763074343379,,,,,0.9670500755310059,-2.83305025100708
1763074343380,,,,12.2989501953125,,
1763074343393,,44.28163804084114,,,,
1763074343395,,,,11.980950355529785,0.3060000240802765,-2.8180501461029053
1763074343414,,,,,-0.12405000627040863,
1763074343415,,,,11.976000785827637,,-3.4669501781463623
1763074343433,,56.59004261280411,,,,
1763074343434,,,,,-0.11700000613927841,-3.7900502681732178
1763074343435,,,,11.349000930786133,,
1763074343436,,,887.392578125,,,
1763074343446,1.0,,,,,
1763074343454,,,,10.990050315856934,0.13395000994205475,-3.7900502681732178
1763074343473,,55.327651307386745,887.392578125,11.385000228881836,0.14595000445842743,-3.8020501136779785
1763074343479,2.0,,,,,
1763074343495,,,,11.967000961303711,0.15300001204013824,-3.808950185775757
1763074343512,,,,12.922050476074219,-0.23205001652240753,-3.7830002307891846
1763074343514,,76.66298543982877,887.392578125,,,
1763074343532,,,,12.928950309753418,-0.6619500517845154,-3.7830002307891846
1763074343546,2.0,,,,,
1763074343551,,,,14.136000633239746,-0.6769500374794006,-3.2950501441955566
1763074343554,,73.94396473685119,,,,
1763074343571,,,,15.40005111694336,-0.6700500249862671,-2.9569501876831055
1763074343590,,,,16.362001419067383,-1.171950101852417,-2.943000078201294
1763074343593,,64.3470614309349,,,,
1763074343596,,,215.33203125,,,
1763074343611,,,,,-1.5600000619888306,
1763074343612,,,,17.137950897216797,,-2.9380500316619873
1763074343629,,,,,-1.8979500532150269,-2.9359500408172607
1763074343631,,,,17.160001754760742,,
1763074343633,,60.91387520719756,215.33203125,,,
1763074343648,2.0,,,,,
1763074343649,,,,17.137950897216797,-2.307000160217285,-2.9569501876831055
1763074343668,,,,16.528051376342773,-2.817000150680542,-2.713050127029419
1763074343673,,53.65316933325484,215.33203125,,,
1763074343688,,,,15.852001190185547,-3.715050220489502,-2.694000244140625
1763074343707,,,,,-4.71405029296875,
1763074343708,,,,14.860950469970703,,-2.701050043106079
1763074343713,,39.8839770977976,,,,
1763074343714,,,215.33203125,,,
1763074343729,,,,13.67595100402832,-5.281050205230713,-2.7079501152038574
1763074343746,,,,,-5.583000183105469,-2.694000244140625
1763074343747,,,,12.318000793457031,,
1763074343748,2.0,,,,,
1763074343753,,36.458440556952766,,,,
1763074343766,,,,11.140050888061523,-5.602050304412842,-2.6989500522613525
1763074343785,,,,,-5.94195032119751,
1763074343786,,,,10.50105094909668,,-2.694000244140625
1763074343794,,35.955037201979756,,,,
1763074343802,,,74.13069661458334,,,
1763074343803,,,74.13069661458334,,,
1763074343805,,,,9.58905029296875,-5.640000343322754,-1.966050148010254
1763074343824,,,,,-5.224050045013428,
1763074343825,,,,8.275050163269043,,-1.9470001459121704
1763074343833,,35.589229553052895,74.13069661458334,,,
1763074343847,,,,7.053000450134277,-4.978950023651123,-1.9519500732421875
1763074343848,2.0,,,,,
1763074343864,,,,6.607950210571289,-5.281050205230713,-1.9609501361846924
1763074343873,,34.85211189853078,74.13069661458334,,,
1763074343883,,,,,-5.298000335693359,
1763074343885,,,,6.630000114440918,,-1.714050054550171
1763074343902,,,,,-5.290950298309326,
1763074343903,,,,5.983050346374512,,-1.699950098991394
1763074343913,3.0,,,,,
1763074343916,,32.66123254370094,,,,
1763074343922,,,,6.000000476837158,-5.293050289154053,-1.284000039100647
1763074343942,,,,6.001950263977051,-5.583000183105469,-1.264050006866455
1763074343953,,31.79862033960664,,,,
1763074343962,,,,5.995050430297852,-6.150000095367432,-1.2720000743865967
1763074343963,3.0,,,,,
1763074343980,,,,,-6.6820502281188965,
1763074343981,,,,6.256050109863281,,-1.26705002784729
1763074343993,,31.224447362874376,,,,
1763074343997,,,51.58328683035714,,,
1763074344000,,,,6.535950183868408,-6.694050312042236,-0.8530500531196594
1763074344019,,,,,-6.696000099182129,
1763074344020,,,,6.973950386047363,,-0.8449500203132629
1763074344037,,31.748759648617,,,,
1763074344038,,,51.58328683035714,,,
1763074344039,,,,6.98205041885376,-6.696000099182129,-0.8449500203132629
1763074344062,,,,7.707000255584717,-6.6820502281188965,-0.8359500169754028
1763074344063,3.0,,,,,
1763074344077,,32.15332217698835,51.58328683035714,,,
1763074344078,,,,,-7.579950332641602,-0.8479500412940979
1763074344079,,,,8.713050842285156,,
1763074344098,,,,8.719950675964355,-8.06100082397461,-0.8449500203132629
1763074344114,,32.75097755683029,,,,
1763074344117,,,,,-8.070000648498535,
1763074344118,,,,8.728950500488281,,-0.8359500169754028
1763074344136,,,,,-7.14900016784668,
1763074344139,,,,9.144000053405762,,-0.8479500412940979
1763074344153,,34.292696821974104,,,,
1763074344156,,,,,-5.820000171661377,-0.8359500169754028
1763074344157,,,220.126220703125,9.868950843811035,,
1763074344164,3.0,,,,,
1763074344178,,,,11.938050270080566,-5.209050178527832,-0.5869500041007996
1763074344193,,34.719224696215484,220.126220703125,,,
1763074344195,,,,12.892951011657715,-4.390050411224365,-0.5869500041007996
1763074344215,,,,12.892951011657715,-4.102950096130371,-0.5869500041007996
1763074344233,,65.67029945099249,220.126220703125,,,
1763074344234,,,,,-3.643050193786621,-0.9030000567436218
1763074344236,,,,12.247050285339355,,
1763074344254,,,,11.815950393676758,-3.2700002193450928,-0.89805006980896
1763074344265,3.0,,,,,
1763074344273,,,,,-2.5159502029418945,
1763074344274,,,,11.832000732421875,,-1.8649500608444214
1763074344278,,58.38382777805043,220.126220703125,,,
1763074344281,,,242.757568359375,,,
1763074344282,,,242.757568359375,,,
1763074344294,,,,,-1.7329500913619995,
1763074344295,,,,11.815950393676758,,-1.8649500608444214
1763074344312,,,,,-1.1080501079559326,-2.203050136566162
1763074344313,,54.770250181220575,242.757568359375,11.320050239562988,,
1763074344332,,,,10.422000885009766,-0.6049500107765198,-2.180999994277954
1763074344351,,,,,-0.30300000309944153,-2.196000099182129
1763074344352,,,,9.955050468444824,,
1763074344353,,59.47868963892704,242.757568359375,,,
1763074344366,3.0,,,,,
1763074344371,,,,,-0.32505002617836,
1763074344372,,,,9.960000038146973,,-2.1979501247406006
1763074344390,,,,,-0.31095001101493835,-2.1889500617980957
1763074344393,,52.11333538701013,,10.285950660705566,,
1763074344412,,,,10.302000045776367,-0.28905001282691956,-2.1859500408172607
1763074344429,,,,,0.32805001735687256,
1763074344430,,,,10.630050659179688,,-2.205000162124634
1763074344433,,46.8736302092359,,,,
1763074344437,,,276.259765625,,,
1763074344449,,,,,0.33000001311302185,-2.2080001831054688
1763074344466,3.0,,,,,
1763074344468,,,,,0.3349500298500061,
1763074344469,,,,10.882050514221191,,-2.212050199508667
1763074344473,,48.99951566394645,276.259765625,,,
1763074344488,,,,10.860000610351562,-0.05895000323653221,-2.2240500450134277
1763074344507,,,,,-0.32505002617836,
1763074344508,,,,11.844000816345215,,-2.1979501247406006
1763074344513,,45.0052333692784,276.259765625,,,
1763074344527,,,,12.856950759887695,-0.3460500240325928,-2.2009501457214355
1763074344546,,,,,0.04800000041723251,
1763074344547,,,,13.267050743103027,,-2.212050199508667
1763074344553,,57.00262018637688,276.259765625,,,
1763074344557,,,179.37874348958331,,,
1763074344564,2.0,,,,,
1763074344565,,,,,0.673050045967102,
1763074344566,,,,13.611001014709473,,-2.454000234603882
1763074344567,2.0,,,,,
1763074344585,,,,,1.1040000915527344,
1763074344586,,,,13.599000930786133,,-2.4660000801086426
1763074344593,,72.76154418133493,,,,
1763074344594,,,179.37874348958331,,,
1763074344605,,,,13.590001106262207,0.5860500335693359,-2.4760501384735107
1763074344624,,,,,-0.21705001592636108,
1763074344626,,,,14.035050392150879,,-2.842050075531006
1763074344633,,76.30299154694487,179.37874348958331,,,
1763074344645,,,,,-0.9430500268936157,
1763074344646,,,,14.595000267028809,,-2.842050075531006
1763074344663,,,,,-1.4380500316619873,
1763074344664,,,,15.213000297546387,,-2.8249502182006836
1763074344667,2.0,,,,,
1763074344677,,60.05883147345811,,,,
1763074344683,,,,16.06800079345703,-1.7040001153945923,-2.823000192642212
1763074344702,,,,,-1.7260501384735107,
1763074344703,,,,16.570951461791992,,-2.8249502182006836
1763074344713,,43.88736431053065,,,,
1763074344717,,,170.15625,,,
1763074344722,,,,16.576051712036133,-1.714050054550171,-3.2440502643585205
1763074344743,,,,15.88800048828125,-2.4150002002716064,-3.5460002422332764
1763074344753,,40.44076379770229,170.15625,,,
1763074344762,,,,15.33495044708252,-3.076050043106079,-3.5440502166748047
1763074344766,2.0,,,,,
1763074344780,,,,14.617051124572754,-3.9810001850128174,-3.5250000953674316
1763074344797,,44.93767487169529,170.15625,,,
1763074344800,,,,14.056950569152832,-4.813950061798096,-3.52905011177063
1763074344820,,,,13.554000854492188,-5.461050033569336,-2.992950201034546
1763074344834,,35.297025863083,170.15625,,,
1763074344839,,,,12.382950782775879,-5.476950168609619,-2.9830501079559326
1763074344842,,,115.65827287946428,,,
1763074344862,,,,10.918050765991211,-4.915050029754639,-2.505000114440918
1763074344867,2.0,,,,,
1763074344873,,44.973403390477074,115.65827287946428,,,
1763074344879,,,,9.337950706481934,-4.591950416564941,-2.49495005607605
1763074344898,,,,,-4.611000061035156,
1763074344899,,,,,,-1.5490500926971436
1763074344900,,,,8.317950248718262,,
1763074344914,,41.054209647881315,115.65827287946428,,,
1763074344918,,,81.21401832217262,7.82205057144165,-4.915050029754639,-1.5280500650405884
1763074344937,,,,,-5.209050178527832,-0.9460500478744507
1763074344938,,,,7.362000465393066,,
1763074344953,,34.977341446780834,81.21401832217262,,,
1763074344956,,,,,-5.230950355529785,
1763074344957,,,,6.414000511169434,,-0.9439500570297241
1763074344967,2.0,,,,,
1763074344979,,,,5.623950481414795,-4.921950340270996,-0.9409500360488892
1763074344993,,35.43897641433755,81.21401832217262,,,
1763074344996,,,,5.193000316619873,-4.942950248718262,-0.6589500308036804
1763074344998,,,66.17658342633928,,,
1763074345016,,,,,-4.941000461578369,
1763074345017,,,,5.193000316619873,,-0.6589500308036804
1763074345033,,34.482375886219955,66.17658342633928,,,
1763074345034,,,,,-4.933950424194336,
1763074345035,,,,5.2099504470825195,,-0.6420000195503235
1763074345054,,,,5.443950176239014,-5.461050033569336,-0.6420000195503235
1763074345067,2.0,,,,,
1763074345073,,,,,-5.8560004234313965,-0.6540000438690186
1763074345074,,34.31778911974674,66.17658342633928,5.449050426483154,,
1763074345095,,,,,-6.150000095367432,-0.6469500064849854
1763074345096,,,,5.782050132751465,,
1763074345112,,,,6.177000522613525,-6.154950141906738,-0.6420000195503235
1763074345113,,35.25790112422898,66.17658342633928,,,
1763074345132,,,,,-6.481050491333008,
1763074345133,,,,,,-0.6510000228881836
1763074345134,,,,6.637050151824951,,
1763074345151,,,,,-6.760950088500977,
1763074345153,,34.68848231621426,,7.398000240325928,,-0.6589500308036804
1763074345167,2.0,,,,,
1763074345171,,,,8.497050285339355,-6.766050338745117,-0.6540000438690186
1763074345190,,,,,-7.492950439453125,
1763074345191,,,,9.301950454711914,,-0.6439500451087952
1763074345193,,34.87613591609809,,,,
1763074345198,,,260.4296875,,,
1763074345210,,,,,-7.5010504722595215,-1.0609500408172607
1763074345211,,,,10.006050109863281,,
1763074345215,4.0,,,,,
1763074345230,,,,10.408050537109375,-6.6820502281188965,-1.0440000295639038
1763074345233,,34.58658229516911,260.4296875,,,
1763074345249,,,,10.990050315856934,-5.820000171661377,-1.0440000295639038
1763074345267,4.0,,,,,
1763074345268,,,,,-4.79295015335083,
1763074345270,,,,12.333000183105469,,-1.0420500040054321
1763074345274,,35.34557986917088,260.4296875,,,
1763074345288,,,,13.575000762939453,-3.81600022315979,-1.0609500408172607
1763074345307,,,,,-3.05400013923645,
1763074345308,,,,13.855950355529785,,-1.055999994277954
1763074345314,,35.64548114370129,,,,
1763074345329,,,,12.951000213623047,-2.608950138092041,-1.3189500570297241
1763074345347,,,,11.707950592041016,-2.608950138092041,-1.3050000667572021
1763074345355,,33.88122859261856,,,,
1763074345366,,,,,-1.8979500532150269,-1.699950098991394
1763074345367,,,,11.413050651550293,,
1763074345368,4.0,,,,,
1763074345385,,,,,-1.294950008392334,
1763074345387,,,,11.430000305175781,,-1.683000087738037
1763074345394,,33.7863188117689,,,,
1763074345398,,,97.0537109375,,,
1763074345405,,,,,-0.9930000305175781,
1763074345407,,,,10.573050498962402,,-3.072000026702881
1763074345425,,,,9.711000442504883,-0.5910000205039978,-3.3949501514434814
1763074345432,3.0,,,,,
1763074345435,,35.081986559803305,97.0537109375,,,
1763074345446,,,,9.121950149536133,-0.22395001351833344,-3.3949501514434814
1763074345464,,,,8.704950332641602,-0.2460000067949295,-3.373950242996216
1763074345473,,34.664187691058444,97.0537109375,,,
1763074345479,,,111.36486235119048,,,
1763074345483,3.0,,,,,
1763074345485,,,,8.716950416564941,-0.23595000803470612,-3.690000057220459
1763074345502,,,,,-0.24105000495910645,-3.6730501651763916
1763074345503,,,,8.722050666809082,,
1763074345513,,33.175106935559924,,,,
1763074345514,,,111.36486235119048,,,
1763074345522,,,,8.710050582885742,-0.22905001044273376,-3.6850502490997314
1763074345542,,,,9.3589506149292,-0.24300001561641693,-3.670950174331665
1763074345554,,32.86398926221368,111.36486235119048,,,
1763074345562,,,96.81533668154763,,-0.22395001351833344,
1763074345563,,,96.81533668154763,9.711000442504883,,-3.690000057220459
1763074345582,3.0,,,10.306950569152832,-0.22395001351833344,-3.3949501514434814
1763074345593,,32.3062296345342,96.81533668154763,,,
1763074345600,,,,10.92495059967041,-0.6769500374794006,-3.373950242996216
1763074345620,,,,11.542950630187988,-0.6769500374794006,-3.373950242996216
1763074345634,,33.57739571866878,96.81533668154763,,,
1763074345639,,,,,-0.6769500374794006,
1763074345641,,,,12.181950569152832,,-3.373950242996216
1763074345653,2.0,,,,,
1763074345659,,,,,-0.016050001606345177,
1763074345661,,,,12.748950958251953,,-3.412050247192383
1763074345673,,34.564649317591034,96.81533668154763,,,
1763074345678,,,71.06290690104166,,,
1763074345680,,,,13.000950813293457,0.004950000438839197,-3.4099502563476562
1763074345683,2.0,,,,,
1763074345698,,,,13.495950698852539,-0.7339500188827515,-3.388050079345703
1763074345714,,77.89018133360517,71.06290690104166,,,
1763074345717,,,,14.314950942993164,-1.3450500965118408,-2.992950201034546
1763074345737,,,,14.968950271606445,-1.6819500923156738,-2.9710500240325928
1763074345753,,67.01736440336374,,,,
1763074345754,,,71.06290690104166,,,
1763074345756,,,,15.457050323486328,-1.6870501041412354,-2.991000175476074
1763074345780,,,,15.477001190185547,-1.7040001153945923,-2.9740500450134277
1763074345783,2.0,,,,,
1763074345794,,53.50162830730052,,,,
1763074345795,,,,,-1.7020500898361206,
1763074345796,,,,16.15395164489746,,-2.6050500869750977
1763074345815,,,,,-1.6870501041412354,
1763074345816,,,,16.156949996948242,,-2.602950096130371
1763074345833,,49.037668564698066,,,,
1763074345834,,,,15.2920503616333,-1.7020500898361206,-2.5879502296447754
1763074345839,,,126.1614990234375,,,
1763074345854,,,,14.200050354003906,-2.530050039291382,-2.332050085067749
1763074345866,3.0,,,,,
1763074345873,,39.260863711843214,126.1614990234375,,-3.3990001678466797,
1763074345874,,,,13.165950775146484,,-2.3179500102996826
1763074345883,3.0,,,,,
1763074345896,,,,13.183050155639648,-4.455000400543213,-1.908000111579895
1763074345913,,38.23458259232191,126.1614990234375,12.547950744628906,-4.921950340270996,-1.4560500383377075
1763074345919,,,77.47889927455357,,,
1763074345932,,,,11.370000839233398,-4.924050331115723,-1.168950080871582
1763074345951,,,,,-4.9270501136779785,-0.9030000567436218
1763074345952,,,,10.141950607299805,,
1763074345953,,38.06124614219887,77.47889927455357,,,
1763074345971,,,,9.193950653076172,-4.9270501136779785,-0.8929500579833984
1763074345983,3.0,,,,,
1763074345990,,,,,-4.939050197601318,
1763074345991,,,,8.812950134277344,,-0.8809500336647034
1763074345994,,39.20611011062426,77.47889927455357,,,
1763074346013,,,,8.152050018310547,-4.933950424194336,-0.8860500454902649
1763074346030,,,,7.462950229644775,-4.924050331115723,-0.8959500193595886
1763074346033,,42.33281506290429,77.47889927455357,,,
1763074346038,,,100.69713919503349,,,
1763074346039,,,100.69713919503349,,,
1763074346049,,,,6.772950172424316,-4.929000377655029,-0.8910000324249268
1763074346068,,,,6.508050441741943,-4.924050331115723,-0.8959500193595886
1763074346073,,40.12870806819737,,,,
1763074346074,,,100.69713919503349,,,
1763074346083,3.0,,,,,
1763074346088,,,,6.88800048828125,-5.389050483703613,-0.8860500454902649
1763074346107,,,,6.891000270843506,-5.398050308227539,-0.9000000357627869
1763074346114,,44.43219334903322,100.69713919503349,,,
1763074346119,,,110.36824544270834,,,
1763074346120,,,110.36824544270834,,,
1763074346127,,,,,-5.403000354766846,
1763074346128,,,,6.895050525665283,,-0.8959500193595886
1763074346147,,,,6.904950141906738,-5.676000118255615,-0.8860500454902649
1763074346156,,42.17325885741177,110.36824544270834,,,
1763074346166,,,,,-6.294000148773193,
1763074346168,,,,7.65000057220459,,-0.8910000324249268
1763074346183,3.0,,,,,
1763074346185,,,,,-6.646050453186035,
1763074346186,,,,7.987050533294678,,-0.89805006980896
1763074346193,,35.73798465518024,110.36824544270834,,,
1763074346197,,,70.04679361979166,,,
1763074346198,,,70.04679361979166,,,
1763074346205,,,,7.999050617218018,-6.652950286865234,-0.8910000324249268
1763074346224,,,,,-6.648000240325928,-0.8959500193595886
1763074346225,,,,7.993950366973877,,
1763074346237,,35.106243336496725,70.04679361979166,,,
1763074346244,,,,7.276050567626953,-7.615050315856934,-0.8860500454902649
1763074346264,,,,7.282950401306152,-8.347949981689453,-0.8959500193595886
1763074346277,,35.04495597244862,70.04679361979166,,,
1763074346283,3.0,,,7.729050159454346,-8.88705062866211,-0.8839500546455383
1763074346300,6.0,,,,,
1763074346303,,,,7.743000507354736,-8.905950546264648,-0.8880000710487366
1763074346313,,35.04490974034069,,,,
1763074346314,,,70.04679361979166,,,
1763074346322,,,,8.059050559997559,-8.434050559997559,-0.8809500336647034
1763074346342,,,,8.662050247192383,-6.889950275421143,-0.8929500579833984
1763074346353,,34.59925249391964,,,,
1763074346362,,,,9.94800090789795,-5.425050258636475,-0.89805006980896
1763074346381,,,,11.320050239562988,-4.405050277709961,-0.8880000710487366
1763074346383,6.0,,,,,
1763074346393,,34.30204354631495,,,,
1763074346400,,,49.78302001953125,,-4.024050235748291,
1763074346401,,,,11.671950340270996,,-0.8860500454902649
1763074346420,,,,,-4.03095006942749,
1763074346422,,,,11.097000122070312,,-1.2120000123977661
1763074346433,,34.543033173295676,49.78302001953125,,,
1763074346439,,,,,-4.0410003662109375,
1763074346440,,,,10.378950119018555,,-1.7359501123428345
1763074346459,,,,9.84795093536377,-3.6720001697540283,-2.0880000591278076
1763074346473,,37.62195763048804,49.78302001953125,,,
1763074346480,,,,,-3.676950216293335,
1763074346481,,,,9.85200023651123,,-2.083050012588501
1763074346496,6.0,,,,,
1763074346498,,,,9.867000579833984,-3.2119500637054443,-2.4180002212524414
1763074346513,,38.73112189287033,,,,
1763074346517,3.0,,,9.850050926208496,-2.7169501781463623,-2.842050075531006
1763074346537,,,,9.867000579833984,-2.2069501876831055,-2.823000192642212
1763074346553,,45.425923363048504,,,,
1763074346556,,,,,-1.812000036239624,
1763074346557,,,,10.1850004196167,,-2.8350000381469727
1763074346579,,,,10.70205020904541,-1.2160500288009644,-2.83305025100708
1763074346594,,50.76540675310672,,,,
1763074346597,,,,11.125950813293457,-0.5329500436782837,-2.8210501670837402
1763074346598,3.0,,133.8116455078125,,,
1763074346615,,,,11.128950119018555,-0.20295001566410065,-3.201000213623047
1763074346633,,44.818975327272135,133.8116455078125,,,
1763074346635,,,,11.140050888061523,-0.19095000624656677,-3.1870501041412354
1763074346654,,,,,0.13395000994205475,
1763074346655,,,,11.125950813293457,,-3.201000213623047
1763074346673,,41.64245999155162,133.8116455078125,,,
1763074346674,,,,11.119050979614258,0.14100000262260437,-3.2089500427246094
1763074346698,3.0,,,11.557050704956055,0.14100000262260437,-3.2089500427246094
1763074346713,,39.9347644525348,,,,
1763074346714,,,,11.902050971984863,-0.361050009727478,-3.184950113296509
1763074346732,,,,,-0.3660000264644623,-3.180000066757202
1763074346733,,,,12.181950569152832,,
1763074346734,4.0,,,,,
1763074346752,,,,12.454950332641602,-0.05205000191926956,-3.6750001907348633
1763074346754,,43.480898772886825,,,,
1763074346762,,,136.24430338541669,,,
1763074346771,,,,,0.3130500018596649,
1763074346773,,,,12.879000663757324,,-3.687000274658203
1763074346791,,,,13.201951026916504,0.31800001859664917,-3.9340500831604004
1763074346793,,44.09953288164074,,,,
1763074346794,,,136.24430338541669,,,
1763074346798,4.0,,,,,
1763074346812,,,,,-0.30300000309944153,
1763074346813,,,,13.798050880432129,,-3.9270002841949463
1763074346830,,,,14.7610502243042,-1.0069500207901,-3.916950225830078
1763074346833,,70.90724197906682,136.24430338541669,,,
1763074346850,,,,15.60105037689209,-1.27305006980896,-3.9150002002716064
1763074346869,,,,,-1.2829500436782837,-4.279050350189209
1763074346870,,,,16.492050170898438,,
1763074346873,,48.89228999508616,136.24430338541669,,,
1763074346888,,,,,-1.2850500345230103,
1763074346889,,,,16.75695037841797,,-4.272000312805176
1763074346898,4.0,,,,,
1763074346908,,,,,-2.0779500007629395,
1763074346909,,,,,,-4.269000053405762
1763074346910,,,,16.46295166015625,,
1763074346913,,46.41300247068523,,,,
1763074346930,,,,16.039051055908203,-2.710050106048584,-4.260000228881836
1763074346947,,,,15.141000747680664,-3.4710001945495605,-4.264050006866455
1763074346951,6.0,,,,,
1763074346957,,54.98345096826988,,,,
1763074346961,,,269.1650390625,,,
1763074346967,,,,,-4.405050277709961,
1763074346968,,,,14.242950439453125,,-4.264050006866455
1763074346986,,,,,-5.640000343322754,
1763074346987,,,,14.574000358581543,,-4.273950099945068
1763074346997,,47.51676877496347,269.1650390625,,,
1763074346998,6.0,,,,,
1763074347006,,,,13.834051132202148,-5.6569504737854,-4.256999969482422
1763074347025,,,,,-6.064050197601318,-3.6750001907348633
1763074347026,,,,12.699000358581543,,
1763074347033,,44.53727054209186,269.1650390625,,,
1763074347036,,,282.197265625,,,
1763074347047,,,,11.542950630187988,-6.076050281524658,-3.6660001277923584
1763074347064,,,,,-6.078000068664551,-3.129000186920166
1763074347065,,,,9.898050308227539,,
1763074347073,,42.86718870847548,282.197265625,,,
1763074347084,,,,8.461050033569336,-5.755050182342529,-3.129000186920166
1763074347098,6.0,,,,,
1763074347103,,,,,-6.315000534057617,
1763074347104,,,,8.47095012664795,,-3.120000123977661
1763074347117,,47.75454119822978,282.197265625,,,
1763074347123,,,,7.65000057220459,-5.884050369262695,-2.433000087738037
1763074347142,,,,,-5.4970502853393555,
1763074347143,,,,6.723000526428223,,-1.6639500856399536
1763074347153,,48.60868432554206,282.197265625,,,
1763074347163,,,,5.95395040512085,-5.251950263977051,-0.62295001745224
1763074347168,4.0,,,,,
1763074347181,,,,,-5.260050296783447,
1763074347183,,,,5.337000370025635,,-0.6150000095367432
1763074347197,,43.424769530503504,,,,
1763074347198,4.0,,,,,
1763074347201,,,,5.3460001945495605,-5.26200008392334,-0.6130500435829163
1763074347221,,,,5.689050197601318,-5.251950263977051,-0.62295001745224
1763074347233,,45.00245205298113,,,,
1763074347236,,,353.2666015625,,,
1763074347240,,,,5.698050498962402,-5.26200008392334,-0.6130500435829163
1763074347260,,,,,-5.619000434875488,
1763074347261,,,,5.695950508117676,,-0.6150000095367432
1763074347273,,34.12115637103331,353.2666015625,,,
1763074347282,,,,6.0769500732421875,-6.142950057983398,-0.6180000305175781
1763074347298,4.0,,,,,
1763074347299,,,,6.364050388336182,-6.1620001792907715,-0.62295001745224
1763074347313,,33.87730032465996,353.2666015625,,,
1763074347316,,,353.7353515625,,,
1763074347318,,,,6.8520002365112305,-6.154950141906738,-0.6060000061988831
1763074347337,,,,,-6.154950141906738,
1763074347338,,,,7.132050514221191,,-0.6060000061988831
1763074347353,,32.28764702112049,353.7353515625,,,
1763074347357,,,,7.135050296783447,-6.1650004386901855,-0.6199500560760498
1763074347380,,,,8.425050735473633,-6.7819504737854,-0.6010500192642212
1763074347385,6.0,,,,,
1763074347394,,34.39123956716284,353.7353515625,,,
1763074347397,,,,9.01395034790039,-7.062000274658203,-0.8880000710487366
1763074347398,6.0,,,,,
1763074347416,,,,,-7.065000534057617,
1763074347417,,,,9.388050079345703,,-0.8719500303268433
1763074347434,,39.66826317259986,353.7353515625,,,
1763074347435,,,,,-6.258000373840332,
1763074347437,,,,9.904950141906738,,-1.2480000257492065
1763074347455,,,,9.904950141906738,-5.251950263977051,-1.2480000257492065
1763074347473,,37.563407850201706,,,,
1763074347474,,,,10.744950294494629,-4.728000164031982,-1.2450000047683716
1763074347494,,,,11.290950775146484,-4.168050289154053,-1.2310500144958496
1763074347514,6.0,,,11.650050163269043,-3.5500502586364746,-1.225950002670288
1763074347515,,39.9049402286187,,,,
1763074347522,,,285.2294921875,,,
1763074347533,,,,11.659950256347656,-3.5620501041412354,-1.237950086593628
1763074347552,,,,,-3.5500502586364746,
1763074347553,,34.967065222111884,285.2294921875,11.248050689697266,,-1.225950002670288
1763074347572,,,,11.260050773620605,-2.845950126647949,-1.2360000610351562
1763074347591,,,,,-1.7329500913619995,
1763074347592,,,,12.081000328063965,,-2.02305006980896
1763074347594,,33.09076833516429,285.2294921875,,,
1763074347613,,,,12.103050231933594,-0.31800001859664917,-3.0859501361846924
1763074347615,6.0,,,,,
1763074347630,,,,,0.47895002365112305,
1763074347631,,,,11.205000877380371,,-3.9910502433776855
1763074347633,,36.76122416034204,,,,
1763074347650,,,,10.507950782775879,0.4810500144958496,-4.003050327301025
1763074347669,,,,,0.9019500613212585,
1763074347670,,,,10.08495044708252,,-3.9940502643585205
1763074347677,,38.297220726113856,,,,
1763074347689,,,,,0.9120000600814819,
1763074347690,,,,9.724950790405273,,-4.003050327301025
1763074347708,,,,9.409049987792969,0.6079500317573547,-4.011000156402588
1763074347713,,57.57820793507644,,,,
1763074347715,6.0,,,,,
1763074347717,,,206.7529296875,,,
1763074347732,,,,9.04995059967041,0.6199500560760498,-3.999000072479248
1763074347747,,,,,0.24900001287460327,-4.011000156402588
1763074347749,,,,9.031050682067871,,
1763074347753,,43.04286840973748,,,,
1763074347754,,,206.7529296875,,,
1763074347767,,,,,-0.0019500000635161996,
1763074347768,,,,9.84000015258789,,-3.999000072479248
1763074347786,,,,11.16195011138916,0.019050000235438347,-3.996000289916992
1763074347793,,39.808797017891266,,,,
1763074347794,,,206.7529296875,,,
1763074347803,,,191.92252604166669,,,
1763074347804,,,191.92252604166669,,,
1763074347806,,,,12.168000221252441,-0.2749500274658203,-3.5460002422332764
1763074347815,6.0,,,,,
1763074347819,3.0,,,,,
1763074347825,,,,,-0.28395000100135803,-2.842050075531006
1763074347826,,,,12.871950149536133,,
1763074347835,,38.7348467031939,191.92252604166669,,,
1763074347847,,,,13.546950340270996,0.004950000438839197,-2.8570501804351807
1763074347864,,,,,0.4140000343322754,
1763074347865,,,,13.956000328063965,,-2.8590002059936523
1763074347873,,53.30481621097257,,,,
1763074347874,,,191.92252604166669,,,
1763074347883,,,132.44481404622397,,,
1763074347884,,,,14.623950958251953,0.4210500121116638,-2.842050075531006
1763074347903,,,,,-0.5260500311851501,
1763074347904,,,,14.989951133728027,,-2.8279502391815186
1763074347913,,79.3746238295075,132.44481404622397,,,
1763074347915,3.0,,,,,
1763074347923,,,,,-1.1650500297546387,
1763074347924,,,,14.998050689697266,,-2.8350000381469727
1763074347942,,,,,-1.4740500450134277,
1763074347943,,,,15.271050453186035,,-2.482950210571289
1763074347953,,55.075288127773916,132.44481404622397,,,
1763074347964,,,,,-0.8419500589370728,-2.464050054550171
1763074347965,,,,15.723000526428223,,
1763074347982,,,,16.018051147460938,-0.16005000472068787,-2.4760501384735107
1763074347993,,62.73028960589227,132.44481404622397,,,
1763074348001,,,,15.429000854492188,-0.15000000596046448,-2.4850502014160156
1763074348015,3.0,,,,,
1763074348020,,,,,-0.17205001413822174,
1763074348021,,,,14.242950439453125,,-2.464050054550171
1763074348037,,63.78228152207943,,,,
1763074348040,,,,13.338000297546387,-1.2439500093460083,-2.116950035095215
1763074348060,,,,12.721050262451172,-2.2360501289367676,-1.5490500926971436
1763074348073,,43.624912048859265,,,,
1763074348077,,,72.10709635416666,,,
1763074348081,,,,11.836950302124023,-3.069000244140625,-1.53000009059906
1763074348098,,,,,-3.3420002460479736,
1763074348099,,,,10.710000038146973,,-1.1470500230789185
1763074348114,,37.66094527113114,72.10709635416666,,,
1763074348116,3.0,,,,,
1763074348118,,,,9.970050811767578,-3.3490500450134277,-1.1350500583648682
1763074348138,,,,9.057000160217285,-3.3540000915527344,-1.1299500465393066
1763074348152,,39.21493690088821,,,,
1763074348153,,,72.10709635416666,,,
1763074348157,,,,8.49000072479248,-3.3490500450134277,-0.22800001502037048
1763074348159,,,88.00160435267857,,,
1763074348177,,,,,-3.95205020904541,0.24495001137256622
1763074348178,,,,8.160000801086426,,
1763074348194,,38.09558302330432,88.00160435267857,,,
1763074348197,,,,7.686000347137451,-3.967050075531006,0.2530499994754791
1763074348216,3.0,,,7.696950435638428,-4.642050266265869,0.612000048160553
1763074348235,,,,7.944000244140625,-5.389050483703613,0.6289500594139099
1763074348237,,38.42168051105063,,,,
1763074348238,,,88.00160435267857,,,
1763074348253,5.0,,,,-6.279000282287598,
1763074348254,,,,8.289000511169434,,0.6330000162124634
1763074348273,,38.24964240512654,88.00160435267857,,,
1763074348274,,,,8.634000778198242,-6.667050361633301,0.6139500141143799
1763074348294,,,,,-7.486050128936768,
1763074348298,,,,9.229950904846191,,0.6190500259399414
1763074348313,,35.05704033414957,,,,
1763074348314,,,,9.473999977111816,-8.29800033569336,0.6169500350952148
1763074348316,5.0,,,,,
1763074348333,,,,9.108000755310059,-8.314949989318848,0.6330000162124634
1763074348352,,,,9.108000755310059,-8.317049980163574,0.612000048160553
1763074348354,,35.97074271848671,,,,
1763074348359,,,118.25032552083334,,,
1763074348372,,,,8.47605037689209,-8.3100004196167,0.6289500594139099
1763074348391,,,,7.9800004959106445,-9.00195026397705,0.625950038433075
1763074348393,,35.794347614720074,118.25032552083334,,,
1763074348412,,,,7.018050193786621,-9.490050315856934,0.612000048160553
1763074348416,5.0,,,,,
1763074348430,,,,,-9.499950408935547,0.6210000514984131
1763074348431,,,,7.027050495147705,,
1763074348433,,35.66071012674124,118.25032552083334,,,
1763074348450,,,,,-8.104050636291504,
1763074348451,,,,8.016000747680664,,0.6139500141143799
1763074348469,6.0,,,,,
1763074348470,,,,9.883050918579102,-6.193050384521484,0.6190500259399414
1763074348478,,38.350829883759026,,,,
1763074348489,,,,,-4.41195011138916,-0.004950000438839197
1763074348490,,,,11.370000839233398,,
1763074348508,,,,10.831950187683105,-3.3990001678466797,-0.32100000977516174
1763074348514,,33.6862099610775,,,,
1763074348516,6.0,,,,,
1763074348519,,,180.7275390625,,,
1763074348531,,,,9.164999961853027,-2.7739500999450684,-0.817050039768219
1763074348547,,,,,-2.785950183868408,-2.0380501747131348
1763074348548,,,,7.176000118255615,,
1763074348557,,35.69075913627957,180.7275390625,,,
1763074348566,,,,,-2.7910501956939697,
1763074348567,,,,6.579000473022461,,-2.5260000228881836
1763074348586,,,,7.4410505294799805,-2.7810001373291016,-2.5069501399993896
1763074348593,,42.81968494816984,180.7275390625,,,
1763074348606,,,,7.458000183105469,-2.013000011444092,-2.509050130844116
1763074348616,6.0,,,,,
1763074348625,,,,7.82205057144165,-1.1370000839233398,-2.0380501747131348
1763074348637,,42.565346942627286,180.7275390625,,,
1763074348647,,,,7.82205057144165,-0.22395001351833344,-2.0380501747131348
1763074348664,,,,8.346000671386719,0.04005000367760658,-2.5260000228881836
1763074348673,,35.92437360153103,,,,
1763074348684,,,,,0.05205000191926956,
1763074348685,,,,9.072000503540039,,-3.151050090789795
1763074348687,5.0,,,,,
1763074348703,,,,,0.4069500267505646,
1763074348705,,,,10.213950157165527,,-3.160950183868408
1763074348713,,39.97325821242396,,,,
1763074348716,5.0,,,,,
1763074348718,,,123.21478949652777,,,
1763074348722,,,,,0.41895002126693726,
1763074348723,,,,11.040000915527344,,-3.172950267791748
1763074348742,,,,,0.42600002884864807,
1763074348743,,,,11.773050308227539,,-3.1560001373291016
1763074348757,,38.70302029454285,123.21478949652777,,,
1763074348762,,,,12.748950958251953,0.9529500603675842,-3.1560001373291016
1763074348781,,,,13.195050239562988,1.2400500774383545,-3.1560001373291016
1763074348793,,34.243125078948424,,,,
1763074348794,,,123.21478949652777,,,
1763074348798,,,88.14784458705357,,,
1763074348801,,,,13.18005084991455,1.2499500513076782,-3.1650002002716064
1763074348817,5.0,,,,,
1763074348820,,,,13.195050239562988,1.258950114250183,-3.430950164794922
1763074348834,,32.33897183608704,88.14784458705357,,,
1763074348840,,,,13.19205093383789,0.9019500613212585,-3.433950185775757
1763074348859,,,,12.915000915527344,0.5149500370025635,-3.453000068664551
1763074348874,,80.48110268140749,88.14784458705357,,,
1763074348880,,,,,-0.6409500241279602,
1763074348881,,,,12.541050910949707,,-3.421950101852417
1763074348898,,,,,-1.582050085067749,-3.4140002727508545
1763074348899,,,,12.016950607299805,,
1763074348904,3.0,,,,,
1763074348914,,74.09252653345109,88.14784458705357,,,
1763074348918,3.0,,128.80859375,12.369000434875488,-2.4940500259399414,-3.412050247192383
1763074348937,,,,,-3.118950128555298,
1763074348938,,,,13.669050216674805,,-3.4099502563476562
1763074348953,,44.9461884065179,128.80859375,,,
1763074348956,,,,,-2.428950071334839,
1763074348958,,,,15.148950576782227,,-3.42900013923645
1763074348976,,,,15.486001014709473,-1.5460500717163086,-3.151050090789795
1763074348997,,77.76920017921786,,,,
1763074348998,,,128.80859375,14.904000282287598,-0.6910500526428223,-2.6770501136779785
1763074349015,,,,13.747950553894043,-0.700950026512146,-2.116950035095215
1763074349030,3.0,,,,,
1763074349033,,71.45747179334444,,,,
1763074349034,,,,,-0.700950026512146,
1763074349036,,,,,,-2.095050096511841
1763074349054,,,,11.434950828552246,-0.9930000305175781,-1.8439500331878662
1763074349073,,51.57592265922012,,,,
1763074349074,,,,10.099050521850586,-1.002000093460083,-1.225950002670288
1763074349076,,,1571.611328125,,,
1763074349093,,,,,-1.27305006980896,
1763074349094,,,,9.151050567626953,,-0.8449500203132629
1763074349113,,36.63887323476934,1571.611328125,,,
1763074349114,,,,8.194950103759766,-1.2799500226974487,-0.843000054359436
1763074349121,4.0,,,,,
1763074349131,4.0,,,,,
1763074349132,,,,7.4920501708984375,-1.76895010471344,-0.8329500555992126
1763074349152,,,,7.089000225067139,-2.2789502143859863,-0.8260500431060791
1763074349153,,34.717492664186,1571.611328125,,,
1763074349171,,,,7.099050521850586,-2.7960002422332764,-0.8359500169754028
1763074349191,,,,,-3.43500018119812,-0.843000054359436
1763074349192,,,,7.092000484466553,,
1763074349193,,37.470111869472404,1571.611328125,,,
1763074349210,,,,,-4.168050289154053,
1763074349213,,,,7.4410505294799805,,-0.8290500640869141
1763074349232,4.0,,,7.993950366973877,-4.785000324249268,-0.22800001502037048
1763074349233,,42.63367394136082,,,,
1763074349249,,,,8.986050605773926,-5.48205041885376,-0.21300001442432404
1763074349269,,,,9.667950630187988,-6.20805025100708,-0.20595000684261322
1763074349273,,40.24407752090199,,,,
1763074349279,,,203.76461791992188,,,
1763074349288,,,,10.329000473022461,-7.213050365447998,-0.20595000684261322
1763074349308,,,,10.882050514221191,-7.4569501876831055,-0.22500000894069672
1763074349318,,41.55428722240288,203.76461791992188,,,
1763074349327,,,,,-6.969000339508057,
1763074349328,,,,11.254950523376465,,-0.21105000376701355
1763074349331,4.0,,,,,
1763074349338,9.0,,,,,
1763074349347,,,,10.092000007629395,-6.667050361633301,-0.22500000894069672
1763074349357,,43.712958138506444,203.76461791992188,,,
1763074349361,,,201.39225260416669,,,
1763074349362,,,201.39225260416669,,,
1763074349366,,,,9.172050476074219,-7.018950462341309,-0.20805001258850098
1763074349386,,,,8.325000762939453,-7.579950332641602,-0.6010500192642212
1763074349393,,40.57891224648796,201.39225260416669,,,
1763074349405,,,,7.147050380706787,-7.327950477600098,-0.8530500531196594
1763074349425,,,,7.165950298309326,-6.445050239562988,-0.8329500555992126
1763074349432,9.0,,,,,
1763074349434,,41.01091347853681,201.39225260416669,,,
1763074349444,,,,,-5.38200044631958,-1.1759999990463257
1763074349445,,,,8.374950408935547,,
1763074349464,,,,9.409049987792969,-4.591950416564941,-1.165950059890747
1763074349473,,38.93226209246518,201.39225260416669,,,
1763074349479,,,116.58979143415178,,,
1763074349483,,,,,-3.9810001850128174,-1.4560500383377075
1763074349484,,,,9.430950164794922,,
1763074349503,,,,8.89905071258545,-3.2989501953125,-2.02305006980896
1763074349513,,39.81069970120625,116.58979143415178,,,
1763074349522,,,,,-3.3130502700805664,-2.2680001258850098
1763074349523,,,,8.605050086975098,,
1763074349534,9.0,,,,,
1763074349542,,,,8.617050170898438,-2.845950126647949,-2.25600004196167
1763074349553,,44.98470905041554,116.58979143415178,,,
1763074349559,,,125.60176595052083,,,
1763074349565,,,,9.424050331115723,-2.1780002117156982,-2.253000020980835
1763074349581,,,,8.935050010681152,-1.1370000839233398,-2.265000104904175
1763074349593,,41.998957861625726,125.60176595052083,,,
1763074349600,,,,7.635000228881836,-0.41805002093315125,-2.02305006980896
1763074349620,,,,,0.08400000631809235,
1763074349621,,,,6.988950252532959,,-1.4770500659942627
1763074349634,9.0,,,,,
1763074349639,,,,,0.3850500285625458,
1763074349640,,,,6.976950168609619,,-1.489050030708313
1763074349653,,47.14726851575779,125.60176595052083,,,
1763074349659,,,,7.894050598144531,0.4039500057697296,-1.4850000143051147
1763074349673,,43.440391190980925,,,,
1763074349680,,,,,0.9100500345230103,
1763074349681,,,,9.164999961853027,,-1.4869500398635864
1763074349698,,,,,1.3840500116348267,
1763074349699,,,,10.006050109863281,,-1.4820001125335693
1763074349713,,41.34888602626639,,,,
1763074349717,,,,,1.8430501222610474,
1763074349719,,,,10.36500072479248,,-1.4869500398635864
1763074349734,9.0,,,,,
1763074349737,,,,11.119050979614258,1.8600001335144043,-1.4800500869750977
1763074349753,,43.7328576156385,,,,
1763074349756,,,,,1.8460501432418823,
1763074349757,,,218.81551106770831,,,
1763074349758,,,,12.570000648498535,,-1.489050030708313
1763074349772,4.0,,,,,
1763074349776,,,,13.258950233459473,0.7369500398635864,-1.4820001125335693
1763074349793,,41.181487178267986,218.81551106770831,,,
1763074349798,,,,13.255050659179688,0.23400001227855682,-1.4820001125335693
1763074349817,,,,13.732950210571289,-0.16695000231266022,-1.4629501104354858
1763074349833,,50.74830688020611,218.81551106770831,,,
1763074349834,4.0,,,,-0.17595000565052032,
1763074349835,,,,13.732950210571289,,-1.4770500659942627
1763074349839,,,135.60897391183036,,,
1763074349854,,,,14.005950927734375,-1.065000057220459,-1.4749500751495361
1763074349873,,78.99092587578099,135.60897391183036,13.044000625610352,-2.1130499839782715,-1.4560500383377075
1763074349893,,,,12.66300106048584,-3.406050205230713,-1.4560500383377075
1763074349913,,72.63193170883547,135.60897391183036,,,
1763074349915,,,,13.603950500488281,-3.406050205230713,-1.204050064086914
1763074349932,,,,,-2.5440001487731934,
1763074349933,,,,15.249000549316406,,-0.831000030040741
1763074349934,4.0,,,,,
1763074349951,,,,,-2.013000011444092,-0.814050018787384
1763074349953,,41.91244770140281,,15.265951156616211,,
1763074349971,,,,,-1.6750500202178955,
1763074349972,,,,14.416050910949707,,-0.817050039768219
1763074349989,,,,,-1.6920000314712524,
1763074349990,,,,13.38900089263916,,-0.8239500522613525
1763074349993,,66.4039274151346,,,,
1763074350010,,,,11.859000205993652,-1.696950078010559,-0.8190000653266907
1763074350029,,,,,-1.2160500288009644,-0.8209500312805176
1763074350030,,,,10.1850004196167,,
1763074350034,,56.86892734578761,,,,
1763074350040,,,476.84596470424106,,,
1763074350048,4.0,,,,,
1763074350049,,,,8.368050575256348,-1.2160500288009644,-0.8209500312805176
1763074350068,,,,7.591950416564941,-1.218000054359436,-0.8190000653266907
1763074350077,,33.96509901203274,476.84596470424106,,,
1763074350088,,,,6.607950210571289,-1.218000054359436,-0.8190000653266907
1763074350107,,,,5.659950256347656,-1.696950078010559,0.10905000567436218
1763074350113,,39.6764999873307,476.84596470424106,,,
1763074350127,,,,5.14995002746582,-1.711050033569336,0.11100000888109207
1763074350148,4.0,,,5.623950481414795,-1.7160000801086426,0.44700002670288086
1763074350153,,53.83529944210909,,,,
1763074350166,,,,6.414000511169434,-1.7059500217437744,0.46800002455711365
1763074350185,,,,7.513050556182861,-2.0059502124786377,0.45600003004074097
1763074350193,,49.704462300216086,,,,
1763074350196,,,220.33203125,,,
1763074350205,10.0,,,9.100950241088867,-2.6740500926971436,0.4540500342845917
1763074350224,,,,,-3.643050193786621,
1763074350226,,,,10.67400074005127,,0.46605002880096436
1763074350233,,40.47312557332254,220.33203125,,,
1763074350244,,,,11.413050651550293,-5.224050045013428,0.46605002880096436
1763074350249,10.0,,,,,
1763074350266,,,,12.160050392150879,-6.157050132751465,0.1879500150680542
1763074350273,,42.401757004887315,220.33203125,,,
1763074350283,,,,13.057950973510742,-6.172050476074219,-0.5509500503540039
1763074350302,,,,13.07295036315918,-5.698050498962402,-0.5359500050544739
1763074350313,,38.295522712115314,,,,
1763074350314,,,220.33203125,,,
1763074350321,,,,,-6.057000160217285,
1763074350323,,,,11.326950073242188,,-0.5359500050544739
1763074350341,,,,9.60300064086914,-6.445050239562988,-0.8880000710487366
1763074350349,10.0,,,,,
1763074350353,,38.57011977951392,,,,
1763074350361,,,,8.986050605773926,-7.198950290679932,-0.8809500336647034
1763074350381,,,,7.362000465393066,-7.206000328063965,-0.8740500211715698
1763074350397,,45.448533548643056,,,,
1763074350400,,,,6.9310503005981445,-7.219950199127197,-1.1539500951766968
1763074350403,,,79.31367710658482,,,
1763074350419,,,,7.591950416564941,-6.250950336456299,-1.1370000839233398
1763074350423,9.0,,,,,
1763074350433,,40.58212032834674,79.31367710658482,,,
1763074350438,,,,,-5.137050151824951,
1763074350439,,,,9.01395034790039,,-1.1490000486373901
1763074350449,9.0,,,,,
1763074350458,,,,,-4.038000106811523,
1763074350459,,,,,,-1.1470500230789185
1763074350460,,,,9.294000625610352,,
1763074350473,,47.775771625202836,79.31367710658482,,,
1763074350478,,,,,-3.1690502166748047,
1763074350480,,,,8.54699993133545,,-1.6639500856399536
1763074350499,,,,7.858050346374512,-2.8030500411987305,-1.6470000743865967
1763074350514,,40.16317969374042,,,,
1763074350517,,,,7.26900053024292,-2.307000160217285,-1.6639500856399536
1763074350536,,,,7.285950183868408,-1.7260501384735107,-1.9800001382827759
1763074350551,9.0,,,,,
1763074350553,,40.51723328121121,,,,
1763074350556,,,,,-1.7449500560760498,
1763074350558,,,,6.7950005531311035,,-1.968000054359436
1763074350575,,,,,-1.2370500564575195,
1763074350576,,,,6.22005033493042,,-1.9729501008987427
1763074350593,,42.30234646705668,,,,
1763074350599,,,,5.63100004196167,-0.9280500411987305,-1.6639500856399536
1763074350602,,,162.20228794642858,,,
1763074350620,,,,5.380050182342529,-0.9280500411987305,-1.0750499963760376
1763074350637,,45.44105246895369,162.20228794642858,,,
1763074350641,,,,6.1120500564575195,-0.934950053691864,-1.0579500198364258
1763074350642,12.0,,,,,
1763074350660,12.0,,,7.6210503578186035,-0.39705002307891846,-1.0699501037597656
1763074350672,,,,,-0.41100001335144043,
1763074350673,,,,9.072000503540039,,-0.5359500050544739
1763074350675,,43.30180247494514,,,,
1763074350676,,,162.20228794642858,,,
1763074350692,,,,9.790050506591797,0.34200000762939453,-0.5530500411987305
1763074350712,,,,10.422000885009766,0.35895001888275146,-0.5460000038146973
1763074350713,,45.3190540609007,,,,
1763074350739,,,,11.241000175476074,0.361050009727478,-0.547950029373169
1763074350750,,,,,-0.23895001411437988,
1763074350751,,,,12.642000198364258,,-0.5220000147819519
1763074350755,,38.33510943077892,,,,
1763074350759,,,1106.4599609375,,,
1763074350760,,,1106.4599609375,,,
1763074350761,12.0,,,,,
1763074350773,,,,,-0.24795001745224,
1763074350774,,,,13.798050880432129,,0.016050001606345177
1763074350789,,,,,0.0690000057220459,
1763074350790,,,,15.06195068359375,,0.00795000046491623
1763074350793,,46.6890764477793,1106.4599609375,,,
1763074350809,,,,15.508050918579102,0.08595000207424164,0.016050001606345177
1763074350837,,77.38846166552013,1106.4599609375,,,
1763074350838,,,,15.510001182556152,-1.065000057220459,0.018000001087784767
1763074350848,,,,15.916951179504395,-1.76895010471344,-0.37800002098083496
1763074350857,3.0,,,,,
1763074350861,3.0,,,,,
1763074350869,,,,15.928950309753418,-2.63100004196167,-0.3660000264644623
1763074350873,,66.4692072677192,,,,
1763074350875,,,1106.4599609375,,,
1763074350878,,,1179.326171875,,,
1763074350891,,,,,-2.6449501514434814,-0.37605002522468567
1763074350892,,,,17.052000045776367,,
1763074350915,,,,17.497051239013672,-1.158000111579895,-0.37800002098083496
1763074350916,,53.84184950271234,1179.326171875,,,
1763074350926,,,,16.555950164794922,-0.2749500274658203,-0.37605002522468567
1763074350955,,55.097493723899575,1179.326171875,,,
1763074350956,,,,14.782051086425781,-0.27900001406669617,-0.37095001339912415
1763074350961,3.0,,,,,
1763074350972,,,,,-1.366050124168396,
1763074350973,,,,12.915000915527344,,-0.36195001006126404
1763074350989,,,,11.952000617980957,-2.1349501609802246,-0.35895001888275146
1763074350993,,45.10202256082089,,,,
1763074351004,,,,11.004000663757324,-2.401050090789795,-0.3570000231266022
1763074351023,,,,,-2.098950147628784,
1763074351024,,,,10.069950103759766,,-0.37095001339912415
1763074351035,,35.37183151632714,,,,
1763074351042,,,84.60191514756943,,,
1763074351043,,,,9.079050064086914,-1.8330000638961792,-0.3739500045776367
1763074351062,3.0,,,,,
1763074351069,,,,8.131050109863281,-1.8360000848770142,-0.37095001339912415
1763074351074,6.0,,,,,
1763074351077,,36.875217319117375,84.60191514756943,,,
1763074351094,,,,,-1.8450000286102295,
1763074351095,,,,7.240050315856934,,-0.36195001006126404
1763074351110,,,,6.543000221252441,-2.580000162124634,-0.36900001764297485
1763074351113,,35.23548504493257,84.60191514756943,,,
1763074351121,,,,6.0259504318237305,-3.306000232696533,-0.8530500531196594
1763074351140,,,,,-4.390050411224365,
1763074351141,,,,6.0259504318237305,,-0.8530500531196594
1763074351157,,36.806552997469204,84.60191514756943,,,
1763074351160,,,,6.043050289154053,-4.741950035095215,-0.8359500169754028
1763074351162,,,98.02821180555556,,,
1763074351168,6.0,,,,,
1763074351182,,,,6.508050441741943,-5.511000156402588,-0.8329500555992126
1763074351193,,35.40844554599743,98.02821180555556,,,
1763074351199,,,,6.988950252532959,-6.330000400543213,-0.8530500531196594
1763074351218,,,,,-7.05495023727417,
1763074351219,,,,7.908000469207764,,-1.2120000123977661
1763074351233,,37.849356979605936,98.02821180555556,,,
1763074351238,,,,,-7.32105016708374,-1.2019500732421875
1763074351239,,,,8.72700023651123,,
1763074351240,,,95.32198079427083,,,
1763074351257,,,,,-7.327950477600098,
1763074351259,,,,9.35205078125,,-1.1950500011444092
1763074351268,6.0,,,,,
1763074351273,,37.676340278258536,95.32198079427083,,,
1763074351277,,,,9.724950790405273,-6.9120001792907715,-1.204050064086914
1763074351291,21.0,,,,,
1763074351299,,,,,-6.933000564575195,-1.207050085067749
1763074351300,,,,9.730050086975098,,
1763074351313,,37.233777564262176,95.32198079427083,,,
1763074351321,,,,10.257000923156738,-7.156050205230713,-1.4700000286102295
1763074351337,,,,,-7.5360002517700195,
1763074351338,,,,9.868950843811035,,-1.4610000848770142
1763074351353,,39.54129297999997,,,,
1763074351355,,,,,-7.539000511169434,-1.4580000638961792
1763074351368,21.0,,,,,
1763074351374,,,,,-7.069950103759766,-1.4490001201629639
1763074351375,,,,8.397000312805176,,
1763074351393,,40.09756609338834,,,,
1763074351394,,,,8.74905014038086,-6.409050464630127,-1.4629501104354858
1763074351398,,,78.46807570684524,,,
1763074351417,,,,9.724950790405273,-5.596950054168701,-1.4610000848770142
1763074351434,,35.66103509035736,78.46807570684524,,,
1763074351435,,,,9.735000610351562,-4.591950416564941,-1.4610000848770142
1763074351452,,,,,-4.303950309753418,-1.4610000848770142
1763074351453,,,,8.44694995880127,,
1763074351468,21.0,,,,,
1763074351472,,,,7.756950378417969,-4.311000347137451,-1.4530500173568726
1763074351473,,37.270327481846536,78.46807570684524,,,
1763074351491,,,,,-3.765000104904175,
1763074351493,,,,8.059050559997559,,-1.4490001201629639
1763074351508,15.0,,,,,
1763074351511,,,,8.068950653076172,-3.0829501152038574,-1.7860500812530518
1763074351514,,36.67037340131326,,,,
1763074351515,,,78.46807570684524,,,
1763074351520,,,69.73981584821428,,,
1763074351534,,,,7.707000255584717,-2.5440001487731934,-1.7650500535964966
1763074351550,,,,7.2330002784729,-2.070000171661377,-2.1889500617980957
1763074351553,,40.054179368789406,69.73981584821428,,,
1763074351568,15.0,,,,,
1763074351569,,,,,-1.5600000619888306,
1763074351570,,,,7.252050399780273,,-2.1690001487731934
1763074351589,,,,7.24500036239624,-1.194000005722046,-2.176950216293335
1763074351593,,41.973409859290534,69.73981584821428,,,
1763074351608,,,,,-0.7339500188827515,
1763074351610,,,,7.527000427246094,,-2.180999994277954
1763074351628,,,,7.8510003089904785,-0.7489500641822815,-2.1670501232147217
1763074351637,,41.46630939332725,,,,
1763074351648,,,,7.852950572967529,-0.753000020980835,-2.1859500408172607
1763074351667,15.0,,,8.289000511169434,-0.361050009727478,-1.8870000839233398
1763074351677,,40.89848341918372,,,,
1763074351683,,,97.86669921875,,,
1763074351686,,,,9.782999992370605,0.3559500277042389,-1.894050121307373
1763074351706,,,,11.205000877380371,1.081950068473816,-1.390950083732605
1763074351713,,36.24375302152743,97.86669921875,,,
1763074351725,4.0,,,12.64905071258545,1.1040000915527344,-1.4029500484466553
1763074351745,,,,,0.7369500398635864,
1763074351746,,,,14.041950225830078,,-1.3960500955581665
1763074351753,,37.33450398251006,97.86669921875,,,
1763074351767,,,,,1.1749500036239624,
1763074351768,4.0,,,14.896950721740723,,-1.4029500484466553
1763074351785,,,,15.939001083374023,1.4839500188827515,-1.4010000228881836
1763074351793,,36.598930880246286,97.86669921875,,,
1763074351798,,,64.435546875,,,
1763074351804,,,,16.6429500579834,1.4869500398635864,-1.4029500484466553
1763074351824,,,,16.621049880981445,0.8020500540733337,-1.4130001068115234
1763074351833,,36.688253649837755,64.435546875,,,
1763074351842,,,,16.65195083618164,-1.0000500679016113,-1.714050054550171
1763074351862,,,,16.327051162719727,-1.6110000610351562,-1.6930500268936157
1763074351868,4.0,,,,,
1763074351877,,36.74296077830308,64.435546875,,,
1763074351884,,,,16.336050033569336,-1.3590000867843628,-1.7050501108169556
1763074351909,,,,,-0.7270500063896179,
1763074351910,,,,16.327051162719727,,-1.714050054550171
1763074351917,,41.99756109823254,,,,
1763074351934,,,,15.730051040649414,-0.7300500273704529,-1.7119500637054443
1763074351940,,,,14.710050582885742,-0.7320000529289246,-1.7100000381469727
1763074351942,3.0,,,,,
1763074351956,,76.04261610827665,,,,
1763074351959,,,,,-1.180050015449524,-1.9590001106262207
1763074351960,,,,13.252050399780273,,
1763074351961,,,3566.2451171875,,,
1763074351970,3.0,,,,,
1763074351979,,,,11.758050918579102,-1.7040001153945923,-1.9399501085281372
1763074351993,,56.476744197843246,3566.2451171875,,,
1763074351999,,,,10.67400074005127,-2.401050090789795,-2.260050058364868
1763074352019,,,,9.754050254821777,-2.4079501628875732,-2.25600004196167
1763074352033,,34.88949167702535,3566.2451171875,,,
1763074352037,,,,8.79900074005127,-2.4220499992370605,-1.9590001106262207
1763074352057,,,,7.707000255584717,-2.4150002002716064,-1.6570501327514648
1763074352074,,36.5020556177518,3566.2451171875,,,
1763074352077,,,,6.6220502853393555,-2.401050090789795,-1.6350001096725464
1763074352078,3.0,,,,,
1763074352097,,,,6.6250505447387695,-2.9320502281188965,-1.6549500226974487
1763074352113,,37.21471317154512,,,,
1763074352117,,,,6.630000114440918,-3.2479500770568848,-1.6500000953674316
1763074352136,,,,6.019050121307373,-3.6070501804351807,-1.6500000953674316
1763074352158,,38.68040081713201,,,-3.95205020904541,-1.6399500370025635
1763074352159,16.0,,,5.587950229644775,,
1763074352167,,,100.76499720982143,,,
1763074352179,,,,5.607000350952148,-4.504950046539307,-1.3410000801086426
1763074352180,16.0,,,,,
1763074352193,,37.448619281143905,,,-5.3460001945495605,
1763074352194,,,100.76499720982143,6.213000297546387,,-1.3189500570297241
1763074352217,,,,6.916950225830078,-5.94195032119751,-1.321950078010559
1763074352233,,35.986995835751046,100.76499720982143,,,
1763074352238,,,,7.354950428009033,-6.652950286865234,-1.3290001153945923
1763074352252,,,,,-7.291950225830078,-1.336050033569336
1763074352254,,,,7.678050518035889,,
1763074352271,,,,,-7.98900032043457,
1763074352272,,,,8.381999969482422,,-1.3339500427246094
1763074352273,,36.71268162064925,,,,
1763074352285,16.0,,,,,
1763074352290,,,,,-7.98900032043457,
1763074352291,,,,8.878050804138184,,-1.3339500427246094
1763074352310,,,,8.880000114440918,-7.528950214385986,-1.339050054550171
1763074352313,,36.74377999959761,,,,
1763074352338,,,,9.438000679016113,-7.012050151824951,-1.3290001153945923
1763074352355,,,,10.279050827026367,-7.030950546264648,-1.3339500427246094
1763074352357,,35.909899203367885,,,,
1763074352364,,,47.671671549479164,,,
1763074352373,,,,10.300050735473633,-7.0219502449035645,-1.3189500570297241
1763074352376,27.0,,,,,
1763074352391,27.0,,,9.790050506591797,-6.445050239562988,-1.321950078010559
1763074352393,,35.6566105555092,47.671671549479164,,,
1763074352408,,,,10.041000366210938,-5.985000133514404,-1.3270500898361206
1763074352427,,,,10.67400074005127,-5.452950477600098,-1.3309500217437744
1763074352438,,33.176304961688146,47.671671549479164,,,
1763074352449,,,,,-4.548000335693359,
1763074352450,,,,11.254950523376465,,-1.3270500898361206
1763074352466,,,,11.260050773620605,-3.3420002460479736,-1.7929500341415405
1763074352473,,32.69644759637179,,,,
1763074352485,,,,,-2.7460501194000244,
1763074352486,,,,10.42905044555664,,-1.7860500812530518
1763074352491,27.0,,,,,
1763074352505,,,,,-2.2639501094818115,
1763074352506,,,,9.77595043182373,,-1.7890501022338867
1763074352517,,32.89635965352713,,,,
1763074352524,,,120.20088316902282,,,
1763074352525,,,,,-1.5600000619888306,
1763074352526,,,,,,-1.7740501165390015
1763074352527,,,,9.3589506149292,,
1763074352544,,,,8.497050285339355,-1.0290000438690186,-1.7790000438690186
1763074352557,,31.951357650700185,,,,
1763074352558,,,120.20088316902282,,,
1763074352564,,,,7.26900053024292,-1.0429500341415405,-1.7890501022338867
1763074352583,,,,6.499950408935547,-1.0459500551223755,-1.7860500812530518
1763074352593,10.0,,,,,
1763074352597,,34.85205792857754,120.20088316902282,,,
1763074352601,10.0,,,,,
1763074352602,,,,,-1.048050045967102,
1763074352603,,,,5.962050437927246,,-1.4490001201629639
1763074352622,,,,5.971050262451172,-1.048050045967102,-1.4389500617980957
1763074352633,,34.134086862103395,,,,
1763074352634,,,120.20088316902282,,,
1763074352641,,,,,-1.0360500812530518,
1763074352643,,,,6.241950511932373,,-1.4269500970840454
1763074352661,,,,,-1.0380001068115234,
1763074352662,,,,6.514950275421143,,-1.4490001201629639
1763074352673,,31.631694913413703,,,,
1763074352682,,,,7.3909502029418945,-1.0339500904083252,-1.4299501180648804
1763074352700,10.0,,,8.713050842285156,-1.3450500965118408,-1.1899501085281372
1763074352713,,32.592909678491004,,,,
1763074352720,,,68.84684244791666,,,
1763074352721,,,,10.249950408935547,-1.3570500612258911,-1.1830500364303589
1763074352739,,,,11.686050415039062,-1.350000023841858,-1.1899501085281372
1763074352754,,30.99067843566317,68.84684244791666,,,
1763074352758,,,,,-1.76895010471344,
1763074352760,,,,12.62700080871582,,-1.1779500246047974
1763074352778,,,,,-1.7850000858306885,
1763074352780,,,,13.603950500488281,,-1.1850000619888306
1763074352793,,31.130623937962305,68.84684244791666,,,
1763074352802,10.0,,,14.725050926208496,-1.7730001211166382,-1.1730000972747803
1763074352810,3.0,,,,,
1763074352820,,,,15.205950736999512,-1.7830500602722168,-1.1880000829696655
1763074352833,,64.79933326898197,,,,
1763074352838,,,,15.508050918579102,-1.7779500484466553,-1.168950080871582
1763074352856,,,,,-2.968050241470337,-1.1759999990463257
1763074352857,,,,15.522000312805176,,
1763074352874,,72.04978284988901,,,,
1763074352876,,,,15.802050590515137,-3.8230502605438232,-1.1830500364303589
1763074352895,,,,,-3.2479500770568848,
1763074352896,,,,16.585050582885742,,-1.1830500364303589
1763074352902,3.0,,,,,
1763074352914,,56.246171254433705,,,,
1763074352916,,,,17.53995132446289,-2.1780002117156982,-1.5280500650405884
1763074352918,,,478.1025041852679,,,
1763074352934,,,,,-1.3450500965118408,
1763074352935,,,,17.13105010986328,,-1.5090000629425049
1763074352953,,41.12726032355573,478.1025041852679,,-1.3470001220703125,
1763074352954,,,,15.838050842285156,,-1.9440001249313354
1763074352973,,,,14.041950225830078,-2.530050039291382,-1.9369500875473022
1763074352993,,42.37521311827072,478.1025041852679,12.598950386047363,-3.3990001678466797,-2.1889500617980957
1763074353001,3.0,,,,,
1763074353012,,,,,-4.311000347137451,
1763074353013,,,,,,-2.1720001697540283
1763074353014,,,,10.981950759887695,,
1763074353033,,38.47089470326629,,,,
1763074353041,,,,,-5.0370001792907715,
1763074353042,,,,8.914050102233887,,-2.1889500617980957
1763074353060,,,,7.153950214385986,-5.041950225830078,-2.184000015258789
1763074353073,,37.9084527379993,,,,
1763074353077,,,,6.463950157165527,-4.555950164794922,-2.1670501232147217
1763074353082,,,118.4326171875,,,
1763074353098,,,,5.868000507354736,-4.570050239562988,-2.176950216293335
1763074353114,,58.19691302602064,118.4326171875,,,
1763074353122,,,,5.028000354766846,-4.572000026702881,-2.1739501953125
1763074353124,3.0,,,,,
1763074353143,,,,4.531949996948242,-4.254000186920166,-2.180999994277954
1763074353155,,52.909676672127404,118.4326171875,,,
1763074353162,,,,4.551000118255615,-4.003050327301025,-1.8510000705718994
1763074353168,,,,,-4.024050235748291,
1763074353169,,,,5.092950344085693,,-1.8340500593185425
1763074353188,,,,5.860950469970703,-4.009950160980225,-1.420050024986267
1763074353193,,40.13835285118258,118.4326171875,,,
1763074353196,,,113.1201171875,,,
1763074353208,,,,6.364050388336182,-4.009950160980225,-1.4179500341415405
1763074353225,3.0,,,,,
1763074353227,,,,,-5.109000205993652,
1763074353228,,,,,,-1.420050024986267
1763074353229,,,,6.091050148010254,,
1763074353234,,40.75955686398891,113.1201171875,,,
1763074353244,30.0,,,,,
1763074353247,,,,6.100050449371338,-5.884050369262695,-1.4100000858306885
1763074353266,,,,,-6.4519500732421875,
1763074353267,,,,7.089000225067139,,-1.4179500341415405
1763074353273,,35.022704691125625,113.1201171875,,,
1763074353277,,,105.634765625,,,
1763074353285,,,,,-6.9120001792907715,
1763074353286,,,,7.951050281524658,,-1.4130001068115234
1763074353305,,,,8.77695083618164,-7.5010504722595215,-1.3980001211166382
1763074353317,,33.63028064667364,105.634765625,,,
1763074353324,30.0,,,,-8.017950057983398,-1.4080500602722168
1763074353325,,,,9.280050277709961,,
1763074353344,,,,10.113000869750977,-7.659000396728516,-1.111050009727478
1763074353357,,33.33727427911234,105.634765625,,,
1763074353365,,,100.28048270089286,,,
1763074353366,,,100.28048270089286,,,
1763074353369,,,,11.728950500488281,-7.660950183868408,-1.0969500541687012
1763074353389,,,,11.743950843811035,-7.134000301361084,-1.0969500541687012
1763074353393,,32.56017301002038,100.28048270089286,,,
1763074353410,,,,10.932000160217285,-6.567000389099121,-1.4700000286102295
1763074353422,,,,10.9350004196167,-5.877000331878662,-1.9590001106262207
1763074353424,30.0,,,,,
1763074353433,,31.579170544496563,,,,
1763074353434,,,100.28048270089286,,,
1763074353441,,,,,-5.475000381469727,
1763074353442,,,,11.614950180053711,,-1.9519500732421875
1763074353460,39.0,,,,,
1763074353461,,,,11.06100082397461,-5.215950012207031,-1.9470001459121704
1763074353473,,31.42214005246798,100.28048270089286,,,
1763074353487,,,,,-5.2260003089904785,-1.9369500875473022
1763074353488,,,,9.94800090789795,,
1763074353500,,,,9.115050315856934,-5.52495002746582,-1.9489500522613525
1763074353513,,32.56583311050639,,,,
1763074353519,,,,,-5.535000324249268,
1763074353521,,,,8.317950248718262,,-1.9399501085281372
1763074353534,39.0,,,,,
1763074353539,,,,,-4.483950138092041,
1763074353541,,,,7.6710004806518555,,-1.9369500875473022
1763074353553,,32.20504198240334,,,,
1763074353559,,,109.43796115451389,7.3690505027771,-3.378000259399414,-1.9420500993728638
1763074353579,,,,7.075050354003906,-2.0850000381469727,-1.9420500993728638
1763074353593,,31.699298858333353,109.43796115451389,,,
1763074353597,,,,,-1.180050015449524,
1763074353598,,,,6.543000221252441,,-1.420050024986267
1763074353617,,,,,-0.5400000214576721,
1763074353618,,,,6.019050121307373,,-1.4149500131607056
1763074353633,,30.861492999578303,109.43796115451389,,,
1763074353636,39.0,,,,,
1763074353637,,,,6.03795051574707,-0.5550000071525574,-1.4010000228881836
1763074353656,,,,,-0.2670000195503235,
1763074353657,,,,6.270000457763672,,-1.4010000228881836
1763074353673,,36.01038790486068,,,,
1763074353675,,,,,-0.28395000100135803,
1763074353676,,,,7.2109503746032715,,-1.4080500602722168
1763074353678,13.0,,,,,
1763074353695,,,,8.160000801086426,-0.26295000314712524,-1.4059500694274902
1763074353714,,32.54944663587121,,,,
1763074353716,,,,9.345000267028809,-0.27900001406669617,-1.4130001068115234
1763074353736,,,,10.437000274658203,-0.583050012588501,-1.420050024986267
1763074353737,13.0,,,,,
1763074353753,,,,,-0.8280000686645508,
1763074353754,,,,11.491950988769531,,-1.8439500331878662
1763074353757,,31.115842439793624,,,,
1763074353761,,,107.45731026785714,,,
1763074353773,,,,,-0.8320500254631042,-2.180999994277954
1763074353774,,,,12.57705020904541,,
1763074353793,,29.58879574470355,107.45731026785714,13.603950500488281,-0.8470500111579895,-2.180999994277954
1763074353812,,,,14.041950225830078,-0.8350500464439392,-2.1690001487731934
1763074353832,,,,14.059050559997559,-1.078950047492981,-2.164950132369995
1763074353833,,30.05492527779905,107.45731026785714,,,
1763074353837,13.0,,,,,
1763074353851,,,,14.041950225830078,-1.0860000848770142,-2.180999994277954
1763074353870,,,,,-2.3430001735687256,
1763074353871,,,,13.546950340270996,,-1.8439500331878662
1763074353873,,74.08929445851867,,,,
1763074353890,,,,12.828001022338867,-3.535950183868408,-1.8370500802993774
1763074353895,9.0,,,,,
1763074353909,,,,,-4.375950336456299,
1763074353910,,,,13.309950828552246,,-1.8340500593185425
1763074353913,,62.93413637871717,,,,
1763074353918,,,578.0443638392858,,,
1763074353929,,,,14.52405071258545,-4.381050109863281,-1.828950047492981
1763074353940,9.0,,,,,
1763074353949,,,,15.795001029968262,-4.378050327301025,-1.831950068473816
1763074353953,,52.14520404207403,578.0443638392858,,,
1763074353968,,,,16.485000610351562,-3.9090001583099365,-1.8220500946044922
1763074353987,,,,,-3.198000192642212,
1763074353988,,,,15.78795051574707,,-1.8390001058578491
1763074353993,,77.49864079661342,578.0443638392858,,,
1763074353999,,,509.48769705636164,,,
1763074354007,,,,14.725050926208496,-3.205050230026245,-1.831950068473816
1763074354026,,,,,-3.2119500637054443,
1763074354027,,,,,,-1.8250501155853271
1763074354028,,,,13.69800090789795,,
1763074354033,,71.46405605580168,509.48769705636164,,,
1763074354040,9.0,,,,,
1763074354046,,,,,-3.457050085067749,
1763074354048,,,,12.211050987243652,,-1.8439500331878662
1763074354072,,,,10.221000671386719,-3.844050168991089,-1.8390001058578491
1763074354073,,62.53483920302774,509.48769705636164,,,
1763074354085,,,,8.79900074005127,-3.8520002365112305,-1.831950068473816
1763074354104,,,,,-3.8610002994537354,
1763074354105,,,,8.059050559997559,,-1.585050106048584
1763074354112,3.0,,,,,
1763074354113,,51.94241479050057,509.48769705636164,,,
1763074354120,,,519.026140485491,,,
1763074354124,,,,7.326000213623047,-3.847050189971924,-1.5780000686645508
1763074354140,3.0,,,,,
1763074354143,,,,,-3.8520002365112305,
1763074354145,,,,6.579000473022461,,-1.5730500221252441
1763074354153,,56.009919759742814,519.026140485491,,,
1763074354163,,,,5.832000255584717,-3.8560502529144287,-1.5679501295089722
1763074354184,,,,5.836950302124023,-4.204050064086914,-1.5799500942230225
1763074354197,,37.875379017214854,,,,
1763074354198,,,519.026140485491,,,
1763074354204,,,,5.85105037689209,-4.5769500732421875,-1.5660001039505005
1763074354226,,,,5.842050075531006,-5.094000339508057,-1.0609500408172607
1763074354236,,37.233049946432615,,,,
1763074354246,,,,,-5.619000434875488,
1763074354247,,,,5.293950080871582,,-1.054050087928772
1763074354248,3.0,,,,,
1763074354260,,,,,-6.544950485229492,
1763074354261,,,,5.293950080871582,,-1.0609500408172607
1763074354273,,32.38269332302449,,,,
1763074354277,,,111.16994222005209,,,
1763074354287,,,,5.7460503578186035,-7.350000381469727,-1.377000093460083
1763074354305,,,,,-7.716000556945801,
1763074354306,,,,6.414000511169434,,-1.3549500703811646
1763074354313,,32.14936613010388,111.16994222005209,,,
1763074354319,,,,7.147050380706787,-7.732950210571289,-1.363050103187561
1763074354329,24.0,,,,,
1763074354338,,,,,-7.717950344085693,
1763074354339,,,,7.642050266265869,,-1.377000093460083
1763074354348,24.0,,,,,
1763074354357,,33.3765934359702,,,,
1763074354358,,,111.16994222005209,8.302950859069824,-7.378050327301025,-1.3579500913619995
1763074354377,,,,,-7.73805046081543,
1763074354378,,,,9.567000389099121,,-1.3579500913619995
1763074354393,,32.52191504569768,111.16994222005209,,,
1763074354401,,,,,-8.592000007629395,
1763074354402,,,,9.84795093536377,,-1.3650000095367432
1763074354418,,,,9.86205005645752,-8.595000267028809,-1.363050103187561
1763074354436,,,,10.630050659179688,-8.002950668334961,-1.3549500703811646
1763074354437,,32.202446623402025,,,,
1763074354450,24.0,,,,,
1763074354455,,,,,-6.696000099182129,
1763074354456,,,,11.851950645446777,,-1.3699500560760498
1763074354475,,,,12.655950546264648,-5.439000129699707,-1.3579500913619995
1763074354477,,31.097401624312244,,,,
1763074354478,,,0.0,,,
1763074354494,,,,,-4.756950378417969,
1763074354496,,,,12.289950370788574,,-0.7950000166893005
1763074354514,,30.08387230114159,,,,
1763074354515,,,,11.032950401306152,-4.7659502029418945,-0.7780500650405884
1763074354533,,,,,-4.102950096130371,
1763074354534,,,,9.961950302124023,,-0.7950000166893005
1763074354546,19.0,,,,,
1763074354551,19.0,,,,,
1763074354553,,30.577667706888143,0.0,,-3.2479500770568848,-1.390950083732605
1763074354554,,,,9.388050079345703,,
1763074354573,,,,,-2.53695011138916,
1763074354574,,,,8.719950675964355,,-1.377000093460083
1763074354592,,,,7.915050506591797,-1.8619500398635864,-1.3819500207901
1763074354593,,31.51934853433286,,,,
1763074354611,,,,,-1.4310001134872437,
1763074354612,,,,7.189950466156006,,-1.3819500207901
1763074354634,,30.845894488577237,,,,
1763074354642,,,,6.694050312042236,-0.9640500545501709,-1.3699500560760498
1763074354661,,,,,-0.9760500192642212,
1763074354662,19.0,,,6.349950313568115,,-1.3819500207901
1763074354673,,28.908311562210486,0.0,,,
1763074354681,,,,6.369000434875488,-0.6270000338554382,-1.7359501123428345
1763074354689,,,,,-0.6340500116348267,
1763074354690,,,,6.988950252532959,,-1.7340000867843628
1763074354709,,,,7.426950454711914,-0.6480000019073486,-1.7190001010894775
1763074354713,,33.636276467986555,,,,
1763074354728,,,,,-0.6360000371932983,
1763074354729,,,,8.44694995880127,,-2.095050096511841
1763074354749,,,,9.31605052947998,-0.6409500241279602,-2.086050033569336
1763074354755,,33.33248556411776,,,,
1763074354760,,,92.14176722935268,,,
1763074354769,5.0,,,10.342950820922852,-0.6310500502586365,-2.095050096511841
1763074354770,5.0,,,,,
1763074354788,,,,11.205000877380371,-1.0930500030517578,-2.0880000591278076
1763074354793,,31.210621372724848,,,,
1763074354794,,,92.14176722935268,,,
1763074354819,,,,12.225000381469727,-1.3950001001358032,-2.074050188064575
1763074354834,,29.267928965550777,92.14176722935268,,,
1763074354835,,,0.0,,,
1763074354843,,,,,-1.4050500392913818,-2.0880000591278076
1763074354844,,,,13.590001106262207,,
1763074354845,,,,,-0.9430500268936157,
1763074354846,,,,14.322000503540039,,-2.095050096511841
1763074354865,,,,14.326951026916504,-0.5400000214576721,-2.0899500846862793
1763074354873,,56.438738591430564,,,,
1763074354874,5.0,,,,,
1763074354893,,,,14.926051139831543,-1.9410001039505005,-2.5480501651763916
1763074354911,,,,14.128951072692871,-3.306000232696533,-2.5309500694274902
1763074354913,,69.600671042638,,,,
1763074354923,,,,,-4.125,-2.5260000228881836
1763074354924,,,,14.682001113891602,,
1763074354943,,,,15.852001190185547,-4.129050254821777,-2.5450501441955566
1763074354957,,60.63901889475973,,,,
1763074354962,,,520.0898960658483,,,
1763074354963,,,,16.98000144958496,-4.138950347900391,-2.5360500812530518
1763074354974,5.0,,,,,
1763074354980,11.0,,,,,
1763074354985,,,,16.555950164794922,-3.68595027923584,-2.533050060272217
1763074354993,,63.88920947615265,520.0898960658483,,,
1763074355001,,,,,-3.6910502910614014,
1763074355002,,,,15.535950660705566,,-2.5290000438690186
1763074355021,,,,14.236050605773926,-4.405050277709961,-3.489000082015991
1763074355037,,70.61174414632193,520.0898960658483,,,
1763074355041,,,,12.951000213623047,-4.957950115203857,-3.472050189971924
1763074355065,,,,11.542950630187988,-5.251950263977051,-3.489000082015991
1763074355074,,69.54610300440775,,,,
1763074355090,,,,10.630050659179688,-4.648950099945068,-2.7559502124786377
1763074355091,11.0,,,,,
1763074355113,,64.248958835266,,,,
1763074355116,,,142.7783203125,9.294000625610352,-4.110000133514404,-2.7490501403808594
1763074355119,,,,7.219050407409668,-4.132050037384033,-2.454000234603882
1763074355139,,,,,-4.120050430297852,-2.0880000591278076
1763074355140,,,,5.479950428009033,,
1763074355153,,58.18491302235712,142.7783203125,,,
1763074355171,,,,4.554000377655029,-3.865950107574463,-1.225950002670288
1763074355193,,43.25214570649656,142.7783203125,5.344050407409668,-3.8680500984191895,-1.221000075340271
1763074355195,11.0,,,,,
1763074355196,3.0,,,,-3.6220502853393555,-0.9460500478744507
1763074355197,,,,5.782050132751465,,
1763074355218,,,,5.800950050354004,-3.643050193786621,-0.9270000457763672
1763074355233,,41.29769187236887,142.7783203125,,,
1763074355236,,,128.96484375,5.48805046081543,-4.303950309753418,-0.9360000491142273
1763074355261,,,,5.4970502853393555,-5.022000312805176,-0.9360000491142273
1763074355274,,52.91557576869355,128.96484375,,,
1763074355283,,,,5.868000507354736,-6.013950347900391,-0.9270000457763672
1763074355294,,,,6.450000286102295,-6.76800012588501,-0.9390000700950623
1763074355295,3.0,,,,,
1763074355317,,43.47292834957627,128.96484375,,,
1763074355322,,,141.67633056640625,,,
1763074355323,,,141.67633056640625,,,
1763074355333,,,,7.153950214385986,-7.492950439453125,-0.931950032711029
1763074355354,,,,,-7.498050212860107,
1763074355355,,34.17271487061332,141.67633056640625,8.72700023651123,,-0.9270000457763672
1763074355380,,,,,-7.495950222015381,-0.9289500713348389
1763074355381,,,,9.072000503540039,,
1763074355393,,34.148276875547424,141.67633056640625,,,
1763074355402,,,,9.940950393676758,-7.492950439453125,-0.931950032711029
1763074355404,3.0,,,,,
1763074355425,,,,,-7.795050144195557,
1763074355426,18.0,,,11.040000915527344,,-0.9409500360488892
1763074355435,,32.934846971872524,,,,
1763074355451,,,,,-6.889950275421143,
1763074355452,,,,11.04900074005127,,-0.9360000491142273
1763074355473,,32.469165265994356,,,,
1763074355481,,,,10.221000671386719,-6.588000297546387,-1.3579500913619995
